{
  "resourceType" : "ExplanationOfBenefit",
  "id" : "dme-2188888888",
  "meta" : {
    "lastUpdated" : "IGNORED_FIELD"
  },
  "contained" : [ {
    "resourceType" : "ReferralRequest",
    "id" : "1",
    "status" : "completed",
    "subject" : {
      "reference" : "Patient/567834"
    },
    "requester" : {
      "agent" : {
        "identifier" : {
          "system" : "http://hl7.org/fhir/sid/us-npi",
          "value" : "1306849450"
        },
        "display" : "DR. HAROLD LEROY SMITSON II M.D."
      }
    },
    "recipient" : [ {
      "identifier" : {
        "system" : "http://hl7.org/fhir/sid/us-npi",
        "value" : "1306849450"
      },
      "display" : "DR. HAROLD LEROY SMITSON II M.D."
    } ]
  }, {
    "resourceType" : "Observation",
    "id" : "2",
    "status" : "unknown",
    "code" : {
      "coding" : [ {
        "system" : "https://bluebutton.cms.gov/resources/variables/line_hct_hgb_type_cd",
        "code" : "R2",
        "display" : "Hematocrit Test"
      } ]
    },
    "valueQuantity" : {
      "value" : 44.4
    }
  } ],
  "extension" : [ {
    "url" : "https://bluebutton.cms.gov/resources/variables/prpayamt",
    "valueMoney" : {
      "value" : 0.0,
      "system" : "urn:iso:std:iso:4217",
      "code" : "USD"
    }
  }, {
    "url" : "https://bluebutton.cms.gov/resources/variables/carr_num",
    "valueIdentifier" : {
      "system" : "https://bluebutton.cms.gov/resources/variables/carr_num",
      "value" : "99999"
    }
  }, {
    "url" : "https://bluebutton.cms.gov/resources/variables/carr_clm_pmt_dnl_cd",
    "valueCoding" : {
      "system" : "https://bluebutton.cms.gov/resources/variables/carr_clm_pmt_dnl_cd",
      "code" : "1",
      "display" : "Physician/supplier"
    }
  }, {
    "url" : "https://bluebutton.cms.gov/resources/variables/asgmntcd",
    "valueCoding" : {
      "system" : "https://bluebutton.cms.gov/resources/variables/asgmntcd",
      "code" : "A",
      "display" : "Assigned claim"
    }
  }, {
    "url" : "https://bluebutton.cms.gov/resources/variables/clm_clncl_tril_num",
    "valueIdentifier" : {
      "system" : "https://bluebutton.cms.gov/resources/variables/clm_clncl_tril_num",
      "value" : "0"
    }
  }, {
    "url" : "https://bluebutton.cms.gov/resources/variables/carr_clm_cash_ddctbl_apld_amt",
    "valueMoney" : {
      "value" : 777.0,
      "system" : "urn:iso:std:iso:4217",
      "code" : "USD"
    }
  }, {
    "url" : "https://bluebutton.cms.gov/resources/variables/nch_clm_prvdr_pmt_amt",
    "valueMoney" : {
      "value" : 666.75,
      "system" : "urn:iso:std:iso:4217",
      "code" : "USD"
    }
  }, {
    "url" : "https://bluebutton.cms.gov/resources/variables/nch_clm_bene_pmt_amt",
    "valueMoney" : {
      "value" : 666.66,
      "system" : "urn:iso:std:iso:4217",
      "code" : "USD"
    }
  }, {
    "url" : "https://bluebutton.cms.gov/resources/variables/nch_carr_clm_sbmtd_chrg_amt",
    "valueMoney" : {
      "value" : 1752.75,
      "system" : "urn:iso:std:iso:4217",
      "code" : "USD"
    }
  }, {
    "url" : "https://bluebutton.cms.gov/resources/variables/nch_carr_clm_alowd_amt",
    "valueMoney" : {
      "value" : 754.79,
      "system" : "urn:iso:std:iso:4217",
      "code" : "USD"
    }
  } ],
  "identifier" : [ {
    "system" : "https://bluebutton.cms.gov/resources/variables/clm_id",
    "value" : "2188888888"
  }, {
    "system" : "https://bluebutton.cms.gov/resources/identifier/claim-group",
    "value" : "900"
  } ],
  "status" : "active",
  "type" : {
    "coding" : [ {
      "system" : "https://bluebutton.cms.gov/resources/variables/nch_clm_type_cd",
      "code" : "82",
      "display" : "DMERC; DMEPOS claim"
    }, {
      "system" : "https://bluebutton.cms.gov/resources/codesystem/eob-type",
      "code" : "DME"
    }, {
      "system" : "https://bluebutton.cms.gov/resources/variables/nch_near_line_rec_ident_cd",
      "code" : "M",
      "display" : "Part B DMEPOS claim record (processed by DME Regional Carrier)"
    } ]
  },
  "patient" : {
    "reference" : "Patient/567834"
  },
  "billablePeriod" : {
    "start" : "2014-02-03",
    "end" : "2014-02-03"
  },
  "referral" : {
    "reference" : "#1"
  },
  "careTeam" : [ {
    "extension" : [ {
      "url" : "https://bluebutton.cms.gov/resources/variables/prtcptng_ind_cd",
      "valueCoding" : {
        "system" : "https://bluebutton.cms.gov/resources/variables/prtcptng_ind_cd",
        "code" : "1",
        "display" : "Participating"
      }
    } ],
    "sequence" : 2,
    "provider" : {
      "identifier" : {
        "system" : "http://hl7.org/fhir/sid/us-npi",
        "value" : "1244444444"
      }
    },
    "responsible" : true,
    "role" : {
      "coding" : [ {
        "system" : "http://hl7.org/fhir/claimcareteamrole",
        "code" : "primary",
        "display" : "Primary provider"
      } ]
    },
    "qualification" : {
      "coding" : [ {
        "system" : "https://bluebutton.cms.gov/resources/variables/prvdr_spclty",
        "code" : "A5",
        "display" : "Pharmacy (DMERC)"
      } ]
    }
  } ],
  "diagnosis" : [ {
    "sequence" : 1,
    "diagnosisCodeableConcept" : {
      "coding" : [ {
        "system" : "http://hl7.org/fhir/sid/icd-10",
        "code" : "R5555"
      } ]
    },
    "type" : [ {
      "coding" : [ {
        "system" : "https://bluebutton.cms.gov/resources/codesystem/diagnosis-type",
        "code" : "principal",
        "display" : "The single medical diagnosis that is most relevant to the patient's chief complaint or need for treatment."
      } ]
    } ]
  }, {
    "sequence" : 2,
    "diagnosisCodeableConcept" : {
      "coding" : [ {
        "system" : "http://hl7.org/fhir/sid/icd-10",
        "code" : "R6666"
      } ]
    }
  }, {
    "sequence" : 3,
    "diagnosisCodeableConcept" : {
      "coding" : [ {
        "system" : "http://hl7.org/fhir/sid/icd-10",
        "code" : "G6666"
      } ]
    }
  } ],
  "insurance" : {
    "coverage" : {
      "reference" : "Coverage/part-b-567834"
    }
  },
  "item" : [ {
    "extension" : [ {
      "url" : "https://bluebutton.cms.gov/resources/variables/suplrnum",
      "valueIdentifier" : {
        "system" : "https://bluebutton.cms.gov/resources/variables/suplrnum",
        "value" : "1219966666"
      }
    }, {
      "url" : "https://bluebutton.cms.gov/resources/variables/dmerc_line_scrn_svgs_amt",
      "valueQuantity" : {
        "value" : 0.0
      }
    }, {
      "url" : "https://bluebutton.cms.gov/resources/variables/dmerc_line_mtus_cnt",
      "valueQuantity" : {
        "value" : 60,
        "unit" : "Number of services",
        "system" : "https://bluebutton.cms.gov/resources/variables/dmerc_line_mtus_cd",
        "code" : "3"
      }
    }, {
      "url" : "https://bluebutton.cms.gov/resources/variables/betos_cd",
      "valueCoding" : {
        "system" : "https://bluebutton.cms.gov/resources/variables/betos_cd",
        "code" : "D9Z"
      }
    }, {
      "url" : "https://bluebutton.cms.gov/resources/variables/line_bene_prmry_pyr_cd",
      "valueCoding" : {
        "system" : "https://bluebutton.cms.gov/resources/variables/line_bene_prmry_pyr_cd",
        "code" : "E",
        "display" : "Workers' compensation"
      }
    }, {
      "url" : "https://bluebutton.cms.gov/resources/variables/line_service_deductible",
      "valueCoding" : {
        "system" : "https://bluebutton.cms.gov/resources/variables/line_service_deductible",
        "code" : "0",
        "display" : "Service Subject to Deductible"
      }
    }, {
      "url" : "https://bluebutton.cms.gov/resources/variables/line_hct_hgb_rslt_num",
      "valueReference" : {
        "reference" : "#2"
      }
    }, {
      "url" : "http://hl7.org/fhir/sid/ndc",
      "valueCoding" : {
        "system" : "http://hl7.org/fhir/sid/ndc",
        "code" : "49035044700",
        "display" : "Childrens Acetaminophen - ACETAMINOPHEN"
      }
    } ],
    "sequence" : 1,
    "careTeamLinkId" : [ 2 ],
    "diagnosisLinkId" : [ 3 ],
    "category" : {
      "coding" : [ {
        "system" : "https://bluebutton.cms.gov/resources/variables/line_cms_type_srvc_cd",
        "code" : "P",
        "display" : "Lump sum purchase of DME, prosthetics orthotics"
      } ]
    },
    "service" : {
      "coding" : [ {
        "system" : "https://bluebutton.cms.gov/resources/codesystem/hcpcs",
        "version" : "3",
        "code" : "345"
      } ]
    },
    "modifier" : [ {
      "coding" : [ {
        "system" : "https://bluebutton.cms.gov/resources/codesystem/hcpcs",
        "version" : "3",
        "code" : "YY"
      } ]
    } ],
    "servicedPeriod" : {
      "start" : "2014-02-03",
      "end" : "2014-02-03"
    },
    "locationCodeableConcept" : {
      "extension" : [ {
        "url" : "https://bluebutton.cms.gov/resources/variables/prvdr_state_cd",
        "valueCoding" : {
          "system" : "https://bluebutton.cms.gov/resources/variables/prvdr_state_cd",
          "code" : "MO"
        }
      }, {
        "url" : "https://bluebutton.cms.gov/resources/variables/dmerc_line_prcng_state_cd",
        "valueCoding" : {
          "system" : "https://bluebutton.cms.gov/resources/variables/dmerc_line_prcng_state_cd",
          "code" : "AL"
        }
      }, {
        "url" : "https://bluebutton.cms.gov/resources/variables/dmerc_line_supplr_type_cd",
        "valueCoding" : {
          "system" : "https://bluebutton.cms.gov/resources/variables/dmerc_line_supplr_type_cd",
          "code" : "3",
          "display" : "Suppliers (other than sole proprietorship) for whom employer identification (EI) numbers are used in coding the ID field."
        }
      } ],
      "coding" : [ {
        "system" : "https://bluebutton.cms.gov/resources/variables/line_place_of_srvc_cd",
        "code" : "12",
        "display" : "Home. Location, other than a hospital or other facility, where the patient receives care in a private residence."
      } ]
    },
    "quantity" : {
      "value" : 60
    },
    "adjudication" : [ {
      "category" : {
        "coding" : [ {
          "system" : "https://bluebutton.cms.gov/resources/codesystem/adjudication",
          "code" : "https://bluebutton.cms.gov/resources/variables/line_prmry_alowd_chrg_amt",
          "display" : "Line Primary Payer Allowed Charge Amount"
        } ]
      },
      "amount" : {
        "value" : 20.29,
        "system" : "urn:iso:std:iso:4217",
        "code" : "USD"
      }
    }, {
      "category" : {
        "coding" : [ {
          "system" : "https://bluebutton.cms.gov/resources/codesystem/adjudication",
          "code" : "https://bluebutton.cms.gov/resources/variables/line_dme_prchs_price_amt",
          "display" : "Line DME Purchase Price Amount"
        } ]
      },
      "amount" : {
        "value" : 82.29,
        "system" : "urn:iso:std:iso:4217",
        "code" : "USD"
      }
    }, {
      "extension" : [ {
        "url" : "https://bluebutton.cms.gov/resources/variables/line_pmt_80_100_cd",
        "valueCoding" : {
          "system" : "https://bluebutton.cms.gov/resources/variables/line_pmt_80_100_cd",
          "code" : "0",
          "display" : "80%"
        }
      } ],
      "category" : {
        "coding" : [ {
          "system" : "https://bluebutton.cms.gov/resources/codesystem/adjudication",
          "code" : "https://bluebutton.cms.gov/resources/variables/line_nch_pmt_amt",
          "display" : "Line NCH Medicare Payment Amount"
        } ]
      },
      "amount" : {
        "value" : 123.45,
        "system" : "urn:iso:std:iso:4217",
        "code" : "USD"
      }
    }, {
      "category" : {
        "coding" : [ {
          "system" : "https://bluebutton.cms.gov/resources/codesystem/adjudication",
          "code" : "https://bluebutton.cms.gov/resources/variables/line_bene_pmt_amt",
          "display" : "Line Payment Amount to Beneficiary"
        } ]
      },
      "amount" : {
        "value" : 11.0,
        "system" : "urn:iso:std:iso:4217",
        "code" : "USD"
      }
    }, {
      "category" : {
        "coding" : [ {
          "system" : "https://bluebutton.cms.gov/resources/codesystem/adjudication",
          "code" : "https://bluebutton.cms.gov/resources/variables/line_prvdr_pmt_amt",
          "display" : "Line Provider Payment Amount"
        } ]
      },
      "amount" : {
        "value" : 120.0,
        "system" : "urn:iso:std:iso:4217",
        "code" : "USD"
      }
    }, {
      "category" : {
        "coding" : [ {
          "system" : "https://bluebutton.cms.gov/resources/codesystem/adjudication",
          "code" : "https://bluebutton.cms.gov/resources/variables/line_bene_ptb_ddctbl_amt",
          "display" : "Line Beneficiary Part B Deductible Amount"
        } ]
      },
      "amount" : {
        "value" : 18.0,
        "system" : "urn:iso:std:iso:4217",
        "code" : "USD"
      }
    }, {
      "category" : {
        "coding" : [ {
          "system" : "https://bluebutton.cms.gov/resources/codesystem/adjudication",
          "code" : "https://bluebutton.cms.gov/resources/variables/line_bene_prmry_pyr_pd_amt",
          "display" : "Line Primary Payer (if not Medicare) Paid Amount"
        } ]
      },
      "amount" : {
        "value" : 11.0,
        "system" : "urn:iso:std:iso:4217",
        "code" : "USD"
      }
    }, {
      "category" : {
        "coding" : [ {
          "system" : "https://bluebutton.cms.gov/resources/codesystem/adjudication",
          "code" : "https://bluebutton.cms.gov/resources/variables/line_coinsrnc_amt",
          "display" : "Line Beneficiary Coinsurance Amount"
        } ]
      },
      "amount" : {
        "value" : 20.2,
        "system" : "urn:iso:std:iso:4217",
        "code" : "USD"
      }
    }, {
      "category" : {
        "coding" : [ {
          "system" : "https://bluebutton.cms.gov/resources/codesystem/adjudication",
          "code" : "https://bluebutton.cms.gov/resources/variables/line_sbmtd_chrg_amt",
          "display" : "Line Submitted Charge Amount"
        } ]
      },
      "amount" : {
        "value" : 130.45,
        "system" : "urn:iso:std:iso:4217",
        "code" : "USD"
      }
    }, {
      "category" : {
        "coding" : [ {
          "system" : "https://bluebutton.cms.gov/resources/codesystem/adjudication",
          "code" : "https://bluebutton.cms.gov/resources/variables/line_alowd_chrg_amt",
          "display" : "Line Allowed Charge Amount"
        } ]
      },
      "amount" : {
        "value" : 129.45,
        "system" : "urn:iso:std:iso:4217",
        "code" : "USD"
      }
    }, {
      "category" : {
        "coding" : [ {
          "system" : "https://bluebutton.cms.gov/resources/codesystem/adjudication",
          "code" : "https://bluebutton.cms.gov/resources/variables/line_prcsg_ind_cd",
          "display" : "Line Processing Indicator Code"
        } ]
      },
      "reason" : {
        "coding" : [ {
          "system" : "https://bluebutton.cms.gov/resources/variables/line_prcsg_ind_cd",
          "code" : "A",
          "display" : "Allowed"
        } ]
      }
    } ]
  } ],
  "payment" : {
    "amount" : {
      "value" : 777.75,
      "system" : "urn:iso:std:iso:4217",
      "code" : "USD"
    }
  }
}