{
  "resourceType" : "ExplanationOfBenefit",
  "id" : "carrier-9991831999",
  "meta" : {
    "lastUpdated" : "IGNORED_FIELD"
  },
  "contained" : [ {
    "resourceType" : "ReferralRequest",
    "id" : "1",
    "status" : "completed",
    "subject" : {
      "reference" : "Patient/567834"
    },
    "requester" : {
      "agent" : {
        "identifier" : {
          "system" : "http://hl7.org/fhir/sid/us-npi",
          "value" : "8765676"
        }
      }
    },
    "recipient" : [ {
      "identifier" : {
        "system" : "http://hl7.org/fhir/sid/us-npi",
        "value" : "8765676"
      }
    } ]
  }, {
    "resourceType" : "Observation",
    "id" : "2",
    "status" : "unknown",
    "code" : {
      "coding" : [ {
        "system" : "https://bluebutton.cms.gov/resources/variables/line_hct_hgb_type_cd",
        "code" : "R1",
        "display" : "Hemoglobin Test"
      } ]
    },
    "valueQuantity" : {
      "value" : 42.0
    }
  } ],
  "extension" : [ {
    "url" : "https://bluebutton.cms.gov/resources/variables/prpayamt",
    "valueMoney" : {
      "value" : 0.0,
      "system" : "urn:iso:std:iso:4217",
      "code" : "USD"
    }
  }, {
    "url" : "https://bluebutton.cms.gov/resources/variables/carr_num",
    "valueIdentifier" : {
      "system" : "https://bluebutton.cms.gov/resources/variables/carr_num",
      "value" : "61026"
    }
  }, {
    "url" : "https://bluebutton.cms.gov/resources/variables/carr_clm_cntl_num",
    "valueIdentifier" : {
      "system" : "https://bluebutton.cms.gov/resources/variables/carr_clm_cntl_num",
      "value" : "74655592568216"
    }
  }, {
    "url" : "https://bluebutton.cms.gov/resources/variables/carr_clm_pmt_dnl_cd",
    "valueCoding" : {
      "system" : "https://bluebutton.cms.gov/resources/variables/carr_clm_pmt_dnl_cd",
      "code" : "1",
      "display" : "Physician/supplier"
    }
  }, {
    "url" : "https://bluebutton.cms.gov/resources/variables/carr_num",
    "valueIdentifier" : {
      "system" : "https://bluebutton.cms.gov/resources/variables/carr_num",
      "value" : "74655592568216"
    }
  }, {
    "url" : "https://bluebutton.cms.gov/resources/variables/clm_disp_cd",
    "valueIdentifier" : {
      "system" : "https://bluebutton.cms.gov/resources/variables/clm_disp_cd",
      "value" : "1"
    }
  }, {
    "url" : "https://bluebutton.cms.gov/resources/variables/asgmntcd",
    "valueCoding" : {
      "system" : "https://bluebutton.cms.gov/resources/variables/asgmntcd",
      "code" : "A",
      "display" : "Assigned claim"
    }
  }, {
    "url" : "https://bluebutton.cms.gov/resources/variables/clm_clncl_tril_num",
    "valueIdentifier" : {
      "system" : "https://bluebutton.cms.gov/resources/variables/clm_clncl_tril_num",
      "value" : "0"
    }
  }, {
    "url" : "https://bluebutton.cms.gov/resources/variables/carr_clm_cash_ddctbl_apld_amt",
    "valueMoney" : {
      "value" : 777.0,
      "system" : "urn:iso:std:iso:4217",
      "code" : "USD"
    }
  }, {
    "url" : "https://bluebutton.cms.gov/resources/variables/nch_clm_prvdr_pmt_amt",
    "valueMoney" : {
      "value" : 123.45,
      "system" : "urn:iso:std:iso:4217",
      "code" : "USD"
    }
  }, {
    "url" : "https://bluebutton.cms.gov/resources/variables/nch_clm_bene_pmt_amt",
    "valueMoney" : {
      "value" : 888.0,
      "system" : "urn:iso:std:iso:4217",
      "code" : "USD"
    }
  }, {
    "url" : "https://bluebutton.cms.gov/resources/variables/nch_carr_clm_sbmtd_chrg_amt",
    "valueMoney" : {
      "value" : 245.04,
      "system" : "urn:iso:std:iso:4217",
      "code" : "USD"
    }
  }, {
    "url" : "https://bluebutton.cms.gov/resources/variables/nch_carr_clm_alowd_amt",
    "valueMoney" : {
      "value" : 166.23,
      "system" : "urn:iso:std:iso:4217",
      "code" : "USD"
    }
  } ],
  "identifier" : [ {
    "system" : "https://bluebutton.cms.gov/resources/variables/clm_id",
    "value" : "9991831999"
  }, {
    "system" : "https://bluebutton.cms.gov/resources/identifier/claim-group",
    "value" : "900"
  } ],
  "status" : "active",
  "type" : {
    "coding" : [ {
      "system" : "https://bluebutton.cms.gov/resources/variables/nch_clm_type_cd",
      "code" : "71",
      "display" : "Local carrier non-durable medical equipment, prosthetics, orthotics, and supplies (DMEPOS) claim"
    }, {
      "system" : "https://bluebutton.cms.gov/resources/codesystem/eob-type",
      "code" : "CARRIER"
    }, {
      "system" : "http://hl7.org/fhir/ex-claimtype",
      "code" : "professional",
      "display" : "Professional"
    }, {
      "system" : "https://bluebutton.cms.gov/resources/variables/nch_near_line_rec_ident_cd",
      "code" : "O",
      "display" : "Part B physician/supplier claim record (processed by local carriers; can include DMEPOS services)"
    } ]
  },
  "patient" : {
    "reference" : "Patient/567834"
  },
  "billablePeriod" : {
    "start" : "1999-10-27",
    "end" : "1999-10-27"
  },
  "referral" : {
    "reference" : "#1"
  },
  "information" : [ {
    "sequence" : 1,
    "category" : {
      "coding" : [ {
        "system" : "https://bluebutton.cms.gov/resources/codesystem/information",
        "code" : "https://bluebutton.cms.gov/resources/variables/nch_wkly_proc_dt",
        "display" : "NCH Weekly Claim Processing Date"
      } ]
    },
    "timingDate" : "1999-11-06"
  } ],
  "careTeam" : [ {
    "extension" : [ {
      "url" : "https://bluebutton.cms.gov/resources/variables/carr_line_prvdr_type_cd",
      "valueCoding" : {
        "system" : "https://bluebutton.cms.gov/resources/variables/carr_line_prvdr_type_cd",
        "code" : "0"
      }
    }, {
      "url" : "https://bluebutton.cms.gov/resources/variables/prtcptng_ind_cd",
      "valueCoding" : {
        "system" : "https://bluebutton.cms.gov/resources/variables/prtcptng_ind_cd",
        "code" : "1",
        "display" : "Participating"
      }
    }, {
      "url" : "http://hl7.org/fhir/sid/us-npi",
      "valueCoding" : {
        "system" : "http://hl7.org/fhir/sid/us-npi",
        "code" : "1497758544",
        "display" : "CUMBERLAND COUNTY HOSPITAL SYSTEM, INC"
      }
    } ],
    "sequence" : 2,
    "provider" : {
      "identifier" : {
        "system" : "http://hl7.org/fhir/sid/us-npi",
        "value" : "1923124"
      }
    },
    "responsible" : true,
    "role" : {
      "coding" : [ {
        "system" : "http://hl7.org/fhir/claimcareteamrole",
        "code" : "primary",
        "display" : "Primary provider"
      } ]
    },
    "qualification" : {
      "coding" : [ {
        "system" : "https://bluebutton.cms.gov/resources/variables/prvdr_spclty",
        "code" : "41",
        "display" : "Optometrist"
      } ]
    }
  }, {
    "sequence" : 3,
    "provider" : {
      "identifier" : {
        "system" : "https://bluebutton.cms.gov/resources/variables/tax_num",
        "value" : "204299999"
      }
    },
    "role" : {
      "coding" : [ {
        "system" : "http://hl7.org/fhir/claimcareteamrole",
        "code" : "primary",
        "display" : "Primary provider"
      } ]
    }
  } ],
  "diagnosis" : [ {
    "sequence" : 1,
    "diagnosisCodeableConcept" : {
      "coding" : [ {
        "system" : "http://hl7.org/fhir/sid/icd-10",
        "code" : "H5555"
      } ]
    },
    "type" : [ {
      "coding" : [ {
        "system" : "https://bluebutton.cms.gov/resources/codesystem/diagnosis-type",
        "code" : "principal",
        "display" : "The single medical diagnosis that is most relevant to the patient's chief complaint or need for treatment."
      } ]
    } ]
  }, {
    "sequence" : 2,
    "diagnosisCodeableConcept" : {
      "coding" : [ {
        "system" : "http://hl7.org/fhir/sid/icd-10",
        "code" : "H8888"
      } ]
    }
  }, {
    "sequence" : 3,
    "diagnosisCodeableConcept" : {
      "coding" : [ {
        "system" : "http://hl7.org/fhir/sid/icd-10",
        "code" : "H66666"
      } ]
    }
  }, {
    "sequence" : 4,
    "diagnosisCodeableConcept" : {
      "coding" : [ {
        "system" : "http://hl7.org/fhir/sid/icd-10",
        "code" : "H77777"
      } ]
    }
  }, {
    "sequence" : 5,
    "diagnosisCodeableConcept" : {
      "coding" : [ {
        "system" : "http://hl7.org/fhir/sid/icd-10",
        "code" : "H12345"
      } ]
    }
  } ],
  "insurance" : {
    "coverage" : {
      "reference" : "Coverage/part-b-567834"
    }
  },
  "item" : [ {
    "extension" : [ {
      "url" : "https://bluebutton.cms.gov/resources/variables/carr_line_mtus_cd",
      "valueCoding" : {
        "system" : "https://bluebutton.cms.gov/resources/variables/carr_line_mtus_cd",
        "code" : "3",
        "display" : "Services"
      }
    }, {
      "url" : "https://bluebutton.cms.gov/resources/variables/carr_line_mtus_cnt",
      "valueQuantity" : {
        "value" : 1
      }
    }, {
      "url" : "https://bluebutton.cms.gov/resources/variables/betos_cd",
      "valueCoding" : {
        "system" : "https://bluebutton.cms.gov/resources/variables/betos_cd",
        "code" : "T2D",
        "display" : "Other tests - other"
      }
    }, {
      "url" : "https://bluebutton.cms.gov/resources/variables/line_bene_prmry_pyr_cd",
      "valueCoding" : {
        "system" : "https://bluebutton.cms.gov/resources/variables/line_bene_prmry_pyr_cd",
        "code" : "E",
        "display" : "Workers' compensation"
      }
    }, {
      "url" : "https://bluebutton.cms.gov/resources/variables/line_service_deductible",
      "valueCoding" : {
        "system" : "https://bluebutton.cms.gov/resources/variables/line_service_deductible",
        "code" : "0",
        "display" : "Service Subject to Deductible"
      }
    }, {
      "url" : "https://bluebutton.cms.gov/resources/variables/line_hct_hgb_rslt_num",
      "valueReference" : {
        "reference" : "#2"
      }
    }, {
      "url" : "http://hl7.org/fhir/sid/ndc",
      "valueCoding" : {
        "system" : "http://hl7.org/fhir/sid/ndc",
        "code" : "49035044700"
      }
    } ],
    "sequence" : 6,
    "careTeamLinkId" : [ 2, 3 ],
    "diagnosisLinkId" : [ 5 ],
    "category" : {
      "coding" : [ {
        "system" : "https://bluebutton.cms.gov/resources/variables/line_cms_type_srvc_cd",
        "code" : "1",
        "display" : "Medical care"
      } ]
    },
    "service" : {
      "coding" : [ {
        "system" : "https://bluebutton.cms.gov/resources/codesystem/hcpcs",
        "version" : "5",
        "code" : "92999"
      } ]
    },
    "modifier" : [ {
      "coding" : [ {
        "system" : "https://bluebutton.cms.gov/resources/codesystem/hcpcs",
        "version" : "5",
        "code" : "LT"
      } ]
    } ],
    "servicedPeriod" : {
      "start" : "1999-10-27",
      "end" : "1999-10-27"
    },
    "locationCodeableConcept" : {
      "extension" : [ {
        "url" : "https://bluebutton.cms.gov/resources/variables/prvdr_state_cd",
        "valueCoding" : {
          "system" : "https://bluebutton.cms.gov/resources/variables/prvdr_state_cd",
          "code" : "IL"
        }
      }, {
        "url" : "https://bluebutton.cms.gov/resources/variables/prvdr_zip",
        "valueCoding" : {
          "system" : "https://bluebutton.cms.gov/resources/variables/prvdr_zip",
          "code" : "555558202"
        }
      }, {
        "url" : "https://bluebutton.cms.gov/resources/variables/carr_line_prcng_lclty_cd",
        "valueCoding" : {
          "system" : "https://bluebutton.cms.gov/resources/variables/carr_line_prcng_lclty_cd",
          "code" : "15",
          "display" : "CONNECTICUT"
        }
      }, {
        "url" : "https://bluebutton.cms.gov/resources/variables/carr_line_clia_lab_num",
        "valueIdentifier" : {
          "system" : "https://bluebutton.cms.gov/resources/variables/carr_line_clia_lab_num",
          "value" : "BB889999AA"
        }
      } ],
      "coding" : [ {
        "system" : "https://bluebutton.cms.gov/resources/variables/line_place_of_srvc_cd",
        "code" : "11",
        "display" : "Office. Location, other than a hospital, skilled nursing facility (SNF), military treatment facility, community health center, State or local public health clinic, or intermediate care facility (ICF), where the health professional routinely provides health examinations, diagnosis, and treatment of illness or injury on an ambulatory basis."
      } ]
    },
    "quantity" : {
      "value" : 1
    },
    "adjudication" : [ {
      "category" : {
        "coding" : [ {
          "system" : "https://bluebutton.cms.gov/resources/codesystem/adjudication",
          "code" : "https://bluebutton.cms.gov/resources/variables/carr_line_rdcd_pmt_phys_astn_c",
          "display" : "Carrier Line Reduced Payment Physician Assistant Code"
        } ]
      },
      "reason" : {
        "coding" : [ {
          "system" : "https://bluebutton.cms.gov/resources/variables/carr_line_rdcd_pmt_phys_astn_c",
          "code" : "0",
          "display" : "N/A"
        } ]
      }
    }, {
      "extension" : [ {
        "url" : "https://bluebutton.cms.gov/resources/variables/line_pmt_80_100_cd",
        "valueCoding" : {
          "system" : "https://bluebutton.cms.gov/resources/variables/line_pmt_80_100_cd",
          "code" : "0",
          "display" : "80%"
        }
      } ],
      "category" : {
        "coding" : [ {
          "system" : "https://bluebutton.cms.gov/resources/codesystem/adjudication",
          "code" : "https://bluebutton.cms.gov/resources/variables/line_nch_pmt_amt",
          "display" : "Line NCH Medicare Payment Amount"
        } ]
      },
      "amount" : {
        "value" : 37.5,
        "system" : "urn:iso:std:iso:4217",
        "code" : "USD"
      }
    }, {
      "category" : {
        "coding" : [ {
          "system" : "https://bluebutton.cms.gov/resources/codesystem/adjudication",
          "code" : "https://bluebutton.cms.gov/resources/variables/line_bene_pmt_amt",
          "display" : "Line Payment Amount to Beneficiary"
        } ]
      },
      "amount" : {
        "value" : 0.0,
        "system" : "urn:iso:std:iso:4217",
        "code" : "USD"
      }
    }, {
      "category" : {
        "coding" : [ {
          "system" : "https://bluebutton.cms.gov/resources/codesystem/adjudication",
          "code" : "https://bluebutton.cms.gov/resources/variables/line_prvdr_pmt_amt",
          "display" : "Line Provider Payment Amount"
        } ]
      },
      "amount" : {
        "value" : 37.5,
        "system" : "urn:iso:std:iso:4217",
        "code" : "USD"
      }
    }, {
      "category" : {
        "coding" : [ {
          "system" : "https://bluebutton.cms.gov/resources/codesystem/adjudication",
          "code" : "https://bluebutton.cms.gov/resources/variables/line_bene_ptb_ddctbl_amt",
          "display" : "Line Beneficiary Part B Deductible Amount"
        } ]
      },
      "amount" : {
        "value" : 0.0,
        "system" : "urn:iso:std:iso:4217",
        "code" : "USD"
      }
    }, {
      "category" : {
        "coding" : [ {
          "system" : "https://bluebutton.cms.gov/resources/codesystem/adjudication",
          "code" : "https://bluebutton.cms.gov/resources/variables/line_bene_prmry_pyr_pd_amt",
          "display" : "Line Primary Payer (if not Medicare) Paid Amount"
        } ]
      },
      "amount" : {
        "value" : 0.0,
        "system" : "urn:iso:std:iso:4217",
        "code" : "USD"
      }
    }, {
      "category" : {
        "coding" : [ {
          "system" : "https://bluebutton.cms.gov/resources/codesystem/adjudication",
          "code" : "https://bluebutton.cms.gov/resources/variables/line_coinsrnc_amt",
          "display" : "Line Beneficiary Coinsurance Amount"
        } ]
      },
      "amount" : {
        "value" : 9.57,
        "system" : "urn:iso:std:iso:4217",
        "code" : "USD"
      }
    }, {
      "category" : {
        "coding" : [ {
          "system" : "https://bluebutton.cms.gov/resources/codesystem/adjudication",
          "code" : "https://bluebutton.cms.gov/resources/variables/line_sbmtd_chrg_amt",
          "display" : "Line Submitted Charge Amount"
        } ]
      },
      "amount" : {
        "value" : 75.0,
        "system" : "urn:iso:std:iso:4217",
        "code" : "USD"
      }
    }, {
      "category" : {
        "coding" : [ {
          "system" : "https://bluebutton.cms.gov/resources/codesystem/adjudication",
          "code" : "https://bluebutton.cms.gov/resources/variables/line_alowd_chrg_amt",
          "display" : "Line Allowed Charge Amount"
        } ]
      },
      "amount" : {
        "value" : 47.84,
        "system" : "urn:iso:std:iso:4217",
        "code" : "USD"
      }
    }, {
      "category" : {
        "coding" : [ {
          "system" : "https://bluebutton.cms.gov/resources/codesystem/adjudication",
          "code" : "https://bluebutton.cms.gov/resources/variables/line_prcsg_ind_cd",
          "display" : "Line Processing Indicator Code"
        } ]
      },
      "reason" : {
        "coding" : [ {
          "system" : "https://bluebutton.cms.gov/resources/variables/line_prcsg_ind_cd",
          "code" : "A",
          "display" : "Allowed"
        } ]
      }
    } ]
  } ],
  "payment" : {
    "amount" : {
      "value" : 199.99,
      "system" : "urn:iso:std:iso:4217",
      "code" : "USD"
    }
  }
}