<!-- This is sample output from the application, as produced by running against 
	`./bb-text-samples/fake-data-medium.txt`. -->
<Bundle xmlns="http://hl7.org/fhir">
	<entry>
		<fullUrl value="urn:uuid:89be0753-abcf-4552-8c01-54215ba825a2" />
		<resource>
			<Organization xmlns="http://hl7.org/fhir">
				<name value="Centers for Medicare &amp; Medicaid Services" />
			</Organization>
		</resource>
		<request>
			<method value="POST" />
		</request>
	</entry>
	<entry>
		<fullUrl value="urn:uuid:3fb1cc08-17b9-4197-8c62-b7924cabb50e" />
		<resource>
			<Patient xmlns="http://hl7.org/fhir">
				<name>
					<text value="JOHN DOE" />
				</name>
				<telecom>
					<system value="phone" />
					<value value="215-248-0684" />
				</telecom>
				<birthDate value="1910-01-01" />
				<address>
					<line value="123 ANY ROAD" />
					<city value="ANYTOWN" />
					<state value="IN" />
					<postalCode value="46250" />
				</address>
			</Patient>
		</resource>
		<request>
			<method value="POST" />
		</request>
	</entry>
	<entry>
		<resource>
			<Coverage xmlns="http://hl7.org/fhir">
				<issuer>
					<reference value="urn:uuid:89be0753-abcf-4552-8c01-54215ba825a2" />
				</issuer>
				<period>
					<start value="2014-02-01T00:00:00-05:00" />
				</period>
				<plan value="Medicare Part A" />
				<subscriber>
					<reference value="urn:uuid:3fb1cc08-17b9-4197-8c62-b7924cabb50e" />
				</subscriber>
			</Coverage>
		</resource>
		<request>
			<method value="POST" />
		</request>
	</entry>
	<entry>
		<resource>
			<Coverage xmlns="http://hl7.org/fhir">
				<issuer>
					<reference value="urn:uuid:89be0753-abcf-4552-8c01-54215ba825a2" />
				</issuer>
				<period>
					<start value="2014-02-01T00:00:00-05:00" />
				</period>
				<plan value="Medicare Part B" />
				<subscriber>
					<reference value="urn:uuid:3fb1cc08-17b9-4197-8c62-b7924cabb50e" />
				</subscriber>
			</Coverage>
		</resource>
		<request>
			<method value="POST" />
		</request>
	</entry>
	<entry>
		<resource>
			<Coverage xmlns="http://hl7.org/fhir">
				<issuer>
					<reference value="urn:uuid:89be0753-abcf-4552-8c01-54215ba825a2" />
				</issuer>
				<period>
					<start value="2012-12-01T00:00:00-05:00" />
				</period>
				<type>
					<display value="11 - Medicare Prescription Drug Plan" />
				</type>
				<plan value="S1111/801" />
				<subscriber>
					<reference value="urn:uuid:3fb1cc08-17b9-4197-8c62-b7924cabb50e" />
				</subscriber>
			</Coverage>
		</resource>
		<request>
			<method value="POST" />
		</request>
	</entry>
	<entry>
		<fullUrl value="urn:uuid:234036d6-134b-4e53-bdbc-20fe0aa7d507" />
		<resource>
			<ExplanationOfBenefit xmlns="http://hl7.org/fhir">
				<claim>
					<reference value="urn:uuid:04937888-2173-45e4-aa6b-fb6bacb406c7" />
				</claim>
				<billablePeriod>
					<start value="2014-01-05T00:00:00-05:00" />
					<end value="2014-01-05T00:00:00-05:00" />
				</billablePeriod>
				<patient>
					<reference value="urn:uuid:3fb1cc08-17b9-4197-8c62-b7924cabb50e" />
				</patient>
				<item>
					<sequence value="1" />
					<type>
						<display value="R - Rental of DME" />
					</type>
					<service>
						<system value="http://hl7.org/fhir/sid/icd-9-cm/procedure" />
						<code value="E0601" />
						<display value="Continuous Positive Airway Pressure (Cpap) Device" />
					</service>
					<servicedPeriod>
						<start value="2014-01-05T00:00:00-05:00" />
						<end value="2014-01-05T00:00:00-05:00" />
					</servicedPeriod>
					<place>
						<display value="12 - Home" />
					</place>
					<quantity>
						<value value="1" />
					</quantity>
					<net>
						<value value="135.00" />
						<system value="urn:std:iso:4217" />
						<code value="USD" />
					</net>
					<modifier>
						<code
							value="MS - Six Month Maintenance And Servicing Fee For Reasonable And Necessary Parts And Labor Which Are" />
					</modifier>
					<modifier>
						<code
							value="KX - Requirements Specified In The Medical Policy Have Been Met" />
					</modifier>
					<adjudication>
						<category>
							<code value="allowed" />
						</category>
						<amount>
							<value value="92.53" />
							<system value="urn:std:iso:4217" />
							<code value="USD" />
						</amount>
					</adjudication>
					<adjudication>
						<category>
							<code value="non-covered" />
						</category>
						<amount>
							<value value="42.47" />
							<system value="urn:std:iso:4217" />
							<code value="USD" />
						</amount>
					</adjudication>
				</item>
			</ExplanationOfBenefit>
		</resource>
		<request>
			<method value="POST" />
		</request>
	</entry>
	<entry>
		<fullUrl value="urn:uuid:04937888-2173-45e4-aa6b-fb6bacb406c7" />
		<resource>
			<Claim xmlns="http://hl7.org/fhir">
				<identifier>
					<value value="11122233330000" />
				</identifier>
				<diagnosis>
					<diagnosis>
						<system value="http://hl7.org/fhir/sid/icd-9-cm/diagnosis" />
						<code value="32723" />
					</diagnosis>
				</diagnosis>
			</Claim>
		</resource>
		<request>
			<method value="POST" />
		</request>
	</entry>
	<entry>
		<fullUrl value="urn:uuid:4fb3b99e-b9e7-459d-9c3f-82bc04b66a43" />
		<resource>
			<ExplanationOfBenefit xmlns="http://hl7.org/fhir">
				<claim>
					<reference value="urn:uuid:e00ee484-3baf-4e2b-b38b-fc3d715fb592" />
				</claim>
				<billablePeriod>
					<start value="2014-01-05T00:00:00-05:00" />
					<end value="2014-01-05T00:00:00-05:00" />
				</billablePeriod>
				<patient>
					<reference value="urn:uuid:3fb1cc08-17b9-4197-8c62-b7924cabb50e" />
				</patient>
				<item>
					<sequence value="1" />
					<type>
						<display value="1 - Medical Care" />
					</type>
					<service>
						<system value="http://hl7.org/fhir/sid/icd-9-cm/procedure" />
						<code value="98941" />
						<display
							value="Chiropractic Manipulative Treatment, 3 To 4 Spinal Regions" />
					</service>
					<servicedPeriod>
						<start value="2014-01-05T00:00:00-05:00" />
						<end value="2014-01-05T00:00:00-05:00" />
					</servicedPeriod>
					<place>
						<display value="11 - Office" />
					</place>
					<quantity>
						<value value="1" />
					</quantity>
					<modifier>
						<code
							value="GA - Waiver Of Liability Statement Issued As Required By Payer Policy, Individual Case" />
					</modifier>
				</item>
				<item>
					<sequence value="2" />
					<type>
						<display value="1 - Medical Care" />
					</type>
					<service>
						<system value="http://hl7.org/fhir/sid/icd-9-cm/procedure" />
						<code value="G0283" />
						<display
							value="Electrical Stimulation (Unattended), To One Or More Areas For Indication(S) Other Than Wound" />
					</service>
					<servicedPeriod>
						<start value="2014-01-05T00:00:00-05:00" />
						<end value="2014-01-05T00:00:00-05:00" />
					</servicedPeriod>
					<place>
						<display value="11 - Office" />
					</place>
					<quantity>
						<value value="1" />
					</quantity>
					<modifier>
						<code
							value="GY - Item Or Service Statutorily Excluded, Does Not Meet The Definition Of Any Medicare Benefit Or," />
					</modifier>
				</item>
			</ExplanationOfBenefit>
		</resource>
		<request>
			<method value="POST" />
		</request>
	</entry>
	<entry>
		<fullUrl value="urn:uuid:e00ee484-3baf-4e2b-b38b-fc3d715fb592" />
		<resource>
			<Claim xmlns="http://hl7.org/fhir">
				<identifier>
					<value value="2333444555100" />
				</identifier>
				<diagnosis>
					<diagnosis>
						<system value="http://hl7.org/fhir/sid/icd-9-cm/diagnosis" />
						<code value="7392" />
					</diagnosis>
				</diagnosis>
			</Claim>
		</resource>
		<request>
			<method value="POST" />
		</request>
	</entry>
</Bundle>