{
  "resourceType" : "Bundle",
  "id" : "IGNORED_FIELD",
  "meta" : {
    "lastUpdated" : "IGNORED_FIELD"
  },
  "type" : "searchset",
  "total" : 8,
  "link" : [ {
    "relation" : "self",
    "url" : "https://localhost:IGNORED_FIELD/v1/fhir/ExplanationOfBenefit?_format=json&patient=Patient%2F567834"
  } ],
  "entry" : [ {
    "resource" : {
      "resourceType" : "ExplanationOfBenefit",
      "id" : "outpatient-1234567890",
      "meta" : {
        "lastUpdated" : "IGNORED_FIELD"
      },
      "extension" : [ {
        "url" : "https://bluebutton.cms.gov/resources/variables/nch_profnl_cmpnt_chrg_amt",
        "valueMoney" : {
          "value" : 66.89,
          "system" : "urn:iso:std:iso:4217",
          "code" : "USD"
        }
      }, {
        "url" : "https://bluebutton.cms.gov/resources/variables/nch_bene_ptb_ddctbl_amt",
        "valueMoney" : {
          "value" : 112.0,
          "system" : "urn:iso:std:iso:4217",
          "code" : "USD"
        }
      }, {
        "url" : "https://bluebutton.cms.gov/resources/variables/nch_bene_ptb_coinsrnc_amt",
        "valueMoney" : {
          "value" : 175.73,
          "system" : "urn:iso:std:iso:4217",
          "code" : "USD"
        }
      }, {
        "url" : "https://bluebutton.cms.gov/resources/variables/clm_op_prvdr_pmt_amt",
        "valueMoney" : {
          "value" : 693.92,
          "system" : "urn:iso:std:iso:4217",
          "code" : "USD"
        }
      }, {
        "url" : "https://bluebutton.cms.gov/resources/variables/clm_op_bene_pmt_amt",
        "valueMoney" : {
          "value" : 44.0,
          "system" : "urn:iso:std:iso:4217",
          "code" : "USD"
        }
      }, {
        "url" : "https://bluebutton.cms.gov/resources/variables/nch_bene_blood_ddctbl_lblty_am",
        "valueMoney" : {
          "value" : 6.0,
          "system" : "urn:iso:std:iso:4217",
          "code" : "USD"
        }
      }, {
        "url" : "https://bluebutton.cms.gov/resources/variables/clm_mdcr_non_pmt_rsn_cd",
        "valueCoding" : {
          "system" : "https://bluebutton.cms.gov/resources/variables/clm_mdcr_non_pmt_rsn_cd",
          "code" : "A",
          "display" : "Covered worker's compensation (Obsolete)"
        }
      }, {
        "url" : "https://bluebutton.cms.gov/resources/variables/prpayamt",
        "valueMoney" : {
          "value" : 11.0,
          "system" : "urn:iso:std:iso:4217",
          "code" : "USD"
        }
      }, {
        "url" : "https://bluebutton.cms.gov/resources/variables/fi_num",
        "valueIdentifier" : {
          "system" : "https://bluebutton.cms.gov/resources/variables/fi_num",
          "value" : "15444"
        }
      }, {
        "url" : "https://bluebutton.cms.gov/resources/variables/fi_doc_clm_cntl_num",
        "valueIdentifier" : {
          "system" : "https://bluebutton.cms.gov/resources/variables/fi_doc_clm_cntl_num",
          "value" : "32490593716374487"
        }
      }, {
        "url" : "https://bluebutton.cms.gov/resources/variables/fi_orig_clm_cntl_num",
        "valueIdentifier" : {
          "system" : "https://bluebutton.cms.gov/resources/variables/fi_orig_clm_cntl_num",
          "value" : "373273882012"
        }
      } ],
      "identifier" : [ {
        "system" : "https://bluebutton.cms.gov/resources/variables/clm_id",
        "value" : "1234567890"
      }, {
        "system" : "https://bluebutton.cms.gov/resources/identifier/claim-group",
        "value" : "900"
      } ],
      "status" : "active",
      "type" : {
        "coding" : [ {
          "system" : "https://bluebutton.cms.gov/resources/variables/nch_clm_type_cd",
          "code" : "40",
          "display" : "Hospital Outpatient claim"
        }, {
          "system" : "https://bluebutton.cms.gov/resources/codesystem/eob-type",
          "code" : "OUTPATIENT"
        }, {
          "system" : "http://hl7.org/fhir/ex-claimtype",
          "code" : "professional",
          "display" : "Professional"
        }, {
          "system" : "https://bluebutton.cms.gov/resources/variables/nch_near_line_rec_ident_cd",
          "code" : "W",
          "display" : "Part B institutional claim record (outpatient [HOP], HHA)"
        }, {
          "system" : "https://bluebutton.cms.gov/resources/variables/clm_srvc_clsfctn_type_cd",
          "code" : "3"
        } ]
      },
      "patient" : {
        "reference" : "Patient/567834"
      },
      "billablePeriod" : {
        "extension" : [ {
          "url" : "https://bluebutton.cms.gov/resources/variables/claim_query_cd",
          "valueCoding" : {
            "system" : "https://bluebutton.cms.gov/resources/variables/claim_query_cd",
            "code" : "3",
            "display" : "Final bill"
          }
        } ],
        "start" : "2011-01-24",
        "end" : "2011-01-24"
      },
      "provider" : {
        "identifier" : {
          "system" : "https://bluebutton.cms.gov/resources/variables/prvdr_num",
          "value" : "999999"
        }
      },
      "organization" : {
        "identifier" : {
          "system" : "http://hl7.org/fhir/sid/us-npi",
          "value" : "1497758544"
        },
        "display" : "CUMBERLAND COUNTY HOSPITAL SYSTEM, INC"
      },
      "facility" : {
        "extension" : [ {
          "url" : "https://bluebutton.cms.gov/resources/variables/clm_fac_type_cd",
          "valueCoding" : {
            "system" : "https://bluebutton.cms.gov/resources/variables/clm_fac_type_cd",
            "code" : "1",
            "display" : "Hospital"
          }
        } ],
        "identifier" : {
          "system" : "http://hl7.org/fhir/sid/us-npi",
          "value" : "1497758544"
        },
        "display" : "CUMBERLAND COUNTY HOSPITAL SYSTEM, INC"
      },
      "information" : [ {
        "sequence" : 1,
        "category" : {
          "coding" : [ {
            "system" : "https://bluebutton.cms.gov/resources/codesystem/information",
            "code" : "https://bluebutton.cms.gov/resources/variables/nch_wkly_proc_dt",
            "display" : "NCH Weekly Claim Processing Date"
          } ]
        },
        "timingDate" : "2011-02-26"
      }, {
        "sequence" : 2,
        "category" : {
          "coding" : [ {
            "system" : "https://bluebutton.cms.gov/resources/codesystem/information",
            "code" : "https://bluebutton.cms.gov/resources/variables/clm_mco_pd_sw",
            "display" : "Claim MCO Paid Switch"
          } ]
        },
        "code" : {
          "coding" : [ {
            "system" : "https://bluebutton.cms.gov/resources/variables/clm_mco_pd_sw",
            "code" : "0",
            "display" : "No managed care organization (MCO) payment"
          } ]
        }
      }, {
        "sequence" : 3,
        "category" : {
          "coding" : [ {
            "system" : "https://bluebutton.cms.gov/resources/codesystem/information",
            "code" : "https://bluebutton.cms.gov/resources/variables/clm_freq_cd",
            "display" : "Claim Frequency Code"
          } ]
        },
        "code" : {
          "coding" : [ {
            "system" : "https://bluebutton.cms.gov/resources/variables/clm_freq_cd",
            "code" : "1",
            "display" : "Admit thru discharge claim"
          } ]
        }
      }, {
        "sequence" : 4,
        "category" : {
          "coding" : [ {
            "system" : "https://bluebutton.cms.gov/resources/codesystem/information",
            "code" : "https://bluebutton.cms.gov/resources/variables/ptnt_dschrg_stus_cd",
            "display" : "Patient Discharge Status Code"
          } ]
        },
        "code" : {
          "coding" : [ {
            "system" : "https://bluebutton.cms.gov/resources/variables/ptnt_dschrg_stus_cd",
            "code" : "1"
          } ]
        }
      }, {
        "sequence" : 5,
        "category" : {
          "coding" : [ {
            "system" : "https://bluebutton.cms.gov/resources/codesystem/information",
            "code" : "https://bluebutton.cms.gov/resources/variables/nch_prmry_pyr_cd",
            "display" : "NCH Primary Payer Code (if not Medicare)"
          } ]
        },
        "code" : {
          "coding" : [ {
            "system" : "https://bluebutton.cms.gov/resources/variables/nch_prmry_pyr_cd",
            "code" : "A",
            "display" : "Employer group health plan (EGHP) insurance for an aged beneficiary"
          } ]
        }
      } ],
      "careTeam" : [ {
        "sequence" : 1,
        "provider" : {
          "identifier" : {
            "system" : "http://hl7.org/fhir/sid/us-npi",
            "value" : "3333333333"
          }
        },
        "role" : {
          "coding" : [ {
            "system" : "http://hl7.org/fhir/claimcareteamrole",
            "code" : "assist",
            "display" : "Assisting Provider"
          } ]
        }
      }, {
        "sequence" : 2,
        "provider" : {
          "identifier" : {
            "system" : "http://hl7.org/fhir/sid/us-npi",
            "value" : "4444"
          }
        },
        "role" : {
          "coding" : [ {
            "system" : "http://hl7.org/fhir/claimcareteamrole",
            "code" : "other",
            "display" : "Other"
          } ]
        }
      }, {
        "sequence" : 3,
        "provider" : {
          "identifier" : {
            "system" : "http://hl7.org/fhir/sid/us-npi",
            "value" : "2222222222"
          }
        },
        "role" : {
          "coding" : [ {
            "system" : "http://hl7.org/fhir/claimcareteamrole",
            "code" : "primary",
            "display" : "Primary provider"
          } ]
        }
      }, {
        "sequence" : 4,
        "provider" : {
          "identifier" : {
            "system" : "http://hl7.org/fhir/sid/us-npi",
            "value" : "345345345"
          }
        },
        "role" : {
          "coding" : [ {
            "system" : "http://hl7.org/fhir/claimcareteamrole",
            "code" : "primary",
            "display" : "Primary provider"
          } ]
        }
      } ],
      "diagnosis" : [ {
        "sequence" : 1,
        "diagnosisCodeableConcept" : {
          "coding" : [ {
            "system" : "http://hl7.org/fhir/sid/icd-10",
            "code" : "R5555"
          } ]
        },
        "type" : [ {
          "coding" : [ {
            "system" : "https://bluebutton.cms.gov/resources/codesystem/diagnosis-type",
            "code" : "principal",
            "display" : "The single medical diagnosis that is most relevant to the patient's chief complaint or need for treatment."
          } ]
        } ]
      }, {
        "sequence" : 2,
        "diagnosisCodeableConcept" : {
          "coding" : [ {
            "system" : "http://hl7.org/fhir/sid/icd-10",
            "code" : "I9999"
          } ]
        }
      }, {
        "sequence" : 3,
        "diagnosisCodeableConcept" : {
          "coding" : [ {
            "system" : "http://hl7.org/fhir/sid/icd-10",
            "code" : "R2222"
          } ]
        },
        "type" : [ {
          "coding" : [ {
            "system" : "https://bluebutton.cms.gov/resources/codesystem/diagnosis-type",
            "code" : "external-first",
            "display" : "The code used to identify the 1st external cause of injury, poisoning, or other adverse effect."
          } ]
        } ]
      }, {
        "sequence" : 4,
        "diagnosisCodeableConcept" : {
          "coding" : [ {
            "system" : "http://hl7.org/fhir/sid/icd-10",
            "code" : "R3333"
          } ]
        },
        "type" : [ {
          "coding" : [ {
            "system" : "https://bluebutton.cms.gov/resources/codesystem/diagnosis-type",
            "code" : "external",
            "display" : "A code used to identify an external cause of injury, poisoning, or other adverse effect."
          } ]
        } ]
      }, {
        "sequence" : 5,
        "diagnosisCodeableConcept" : {
          "coding" : [ {
            "system" : "http://hl7.org/fhir/sid/icd-10",
            "code" : "R1122"
          } ]
        },
        "type" : [ {
          "coding" : [ {
            "system" : "https://bluebutton.cms.gov/resources/codesystem/diagnosis-type",
            "code" : "reason-for-visit",
            "display" : "A diagnosis code used to identify the patient's reason for the visit."
          } ]
        } ]
      } ],
      "procedure" : [ {
        "sequence" : 1,
        "date" : "2016-01-16T00:00:00+00:00",
        "procedureCodeableConcept" : {
          "coding" : [ {
            "system" : "http://hl7.org/fhir/sid/icd-10",
            "code" : "0AABBZZ"
          } ]
        }
      } ],
      "insurance" : {
        "coverage" : {
          "reference" : "Coverage/part-b-567834"
        }
      },
      "item" : [ {
        "extension" : [ {
          "url" : "https://bluebutton.cms.gov/resources/variables/rev_cntr_ndc_qty",
          "valueQuantity" : {
            "value" : 77,
            "system" : "https://bluebutton.cms.gov/resources/variables/rev_cntr_ndc_qty_qlfr_cd",
            "code" : "GG"
          }
        } ],
        "sequence" : 25,
        "careTeamLinkId" : [ 4 ],
        "revenue" : {
          "extension" : [ {
            "url" : "https://bluebutton.cms.gov/resources/variables/rev_cntr_stus_ind_cd",
            "valueCoding" : {
              "system" : "https://bluebutton.cms.gov/resources/variables/rev_cntr_stus_ind_cd",
              "code" : "A",
              "display" : "Services not paid under OPPS; uses a different fee schedule (e.g., ambulance, PT, mammography)"
            }
          } ],
          "coding" : [ {
            "system" : "https://bluebutton.cms.gov/resources/variables/rev_cntr",
            "code" : "1"
          } ]
        },
        "service" : {
          "extension" : [ {
            "url" : "https://bluebutton.cms.gov/resources/variables/rev_cntr_ide_ndc_upc_num",
            "valueCoding" : {
              "system" : "https://bluebutton.cms.gov/resources/variables/rev_cntr_ide_ndc_upc_num",
              "code" : "987654321"
            }
          } ],
          "coding" : [ {
            "system" : "https://bluebutton.cms.gov/resources/codesystem/hcpcs",
            "code" : "M99"
          } ]
        },
        "modifier" : [ {
          "coding" : [ {
            "system" : "https://bluebutton.cms.gov/resources/codesystem/hcpcs",
            "code" : "XX"
          } ]
        } ],
        "servicedDate" : "1942-01-03",
        "locationAddress" : {
          "state" : "KY"
        },
        "quantity" : {
          "value" : 111
        },
        "adjudication" : [ {
          "category" : {
            "coding" : [ {
              "system" : "https://bluebutton.cms.gov/resources/codesystem/adjudication",
              "code" : "https://bluebutton.cms.gov/resources/variables/rev_cntr_1st_ansi_cd",
              "display" : "Revenue Center 1st ANSI Code"
            } ]
          },
          "reason" : {
            "coding" : [ {
              "system" : "https://bluebutton.cms.gov/resources/variables/rev_cntr_1st_ansi_cd",
              "code" : "CO120"
            } ]
          }
        }, {
          "category" : {
            "coding" : [ {
              "system" : "https://bluebutton.cms.gov/resources/codesystem/adjudication",
              "code" : "https://bluebutton.cms.gov/resources/variables/rev_cntr_2nd_ansi_cd",
              "display" : "Revenue Center 2nd ANSI Code"
            } ]
          },
          "reason" : {
            "coding" : [ {
              "system" : "https://bluebutton.cms.gov/resources/variables/rev_cntr_2nd_ansi_cd",
              "code" : "CR121"
            } ]
          }
        }, {
          "category" : {
            "coding" : [ {
              "system" : "https://bluebutton.cms.gov/resources/codesystem/adjudication",
              "code" : "https://bluebutton.cms.gov/resources/variables/rev_cntr_blood_ddctbl_amt",
              "display" : "Revenue Center Blood Deductible Amount"
            } ]
          },
          "amount" : {
            "value" : 10.45,
            "system" : "urn:iso:std:iso:4217",
            "code" : "USD"
          }
        }, {
          "category" : {
            "coding" : [ {
              "system" : "https://bluebutton.cms.gov/resources/codesystem/adjudication",
              "code" : "https://bluebutton.cms.gov/resources/variables/rev_cntr_cash_ddctbl_amt",
              "display" : "Revenue Center Cash Deductible Amount"
            } ]
          },
          "amount" : {
            "value" : 12.89,
            "system" : "urn:iso:std:iso:4217",
            "code" : "USD"
          }
        }, {
          "category" : {
            "coding" : [ {
              "system" : "https://bluebutton.cms.gov/resources/codesystem/adjudication",
              "code" : "https://bluebutton.cms.gov/resources/variables/rev_cntr_coinsrnc_wge_adjstd_c",
              "display" : "Revenue Center Coinsurance/Wage Adjusted Coinsurance Amount"
            } ]
          },
          "amount" : {
            "value" : 15.23,
            "system" : "urn:iso:std:iso:4217",
            "code" : "USD"
          }
        }, {
          "category" : {
            "coding" : [ {
              "system" : "https://bluebutton.cms.gov/resources/codesystem/adjudication",
              "code" : "https://bluebutton.cms.gov/resources/variables/rev_cntr_rdcd_coinsrnc_amt",
              "display" : "Revenue Center Reduced Coinsurance Amount"
            } ]
          },
          "amount" : {
            "value" : 11.0,
            "system" : "urn:iso:std:iso:4217",
            "code" : "USD"
          }
        }, {
          "category" : {
            "coding" : [ {
              "system" : "https://bluebutton.cms.gov/resources/codesystem/adjudication",
              "code" : "https://bluebutton.cms.gov/resources/variables/rev_cntr_1st_msp_pd_amt",
              "display" : "Revenue Center 1st Medicare Secondary Payer (MSP) Paid Amount"
            } ]
          },
          "amount" : {
            "value" : 0.0,
            "system" : "urn:iso:std:iso:4217",
            "code" : "USD"
          }
        }, {
          "category" : {
            "coding" : [ {
              "system" : "https://bluebutton.cms.gov/resources/codesystem/adjudication",
              "code" : "https://bluebutton.cms.gov/resources/variables/rev_cntr_2nd_msp_pd_amt",
              "display" : "Revenue Center 2nd Medicare Secondary Payer (MSP) Paid Amount"
            } ]
          },
          "amount" : {
            "value" : 0.0,
            "system" : "urn:iso:std:iso:4217",
            "code" : "USD"
          }
        }, {
          "category" : {
            "coding" : [ {
              "system" : "https://bluebutton.cms.gov/resources/codesystem/adjudication",
              "code" : "https://bluebutton.cms.gov/resources/variables/rev_cntr_prvdr_pmt_amt",
              "display" : "Revenue Center (Medicare) Provider Payment Amount"
            } ]
          },
          "amount" : {
            "value" : 200.0,
            "system" : "urn:iso:std:iso:4217",
            "code" : "USD"
          }
        }, {
          "category" : {
            "coding" : [ {
              "system" : "https://bluebutton.cms.gov/resources/codesystem/adjudication",
              "code" : "https://bluebutton.cms.gov/resources/variables/rev_cntr_bene_pmt_amt",
              "display" : "Revenue Center Payment Amount to Beneficiary"
            } ]
          },
          "amount" : {
            "value" : 300.0,
            "system" : "urn:iso:std:iso:4217",
            "code" : "USD"
          }
        }, {
          "category" : {
            "coding" : [ {
              "system" : "https://bluebutton.cms.gov/resources/codesystem/adjudication",
              "code" : "https://bluebutton.cms.gov/resources/variables/rev_cntr_ptnt_rspnsblty_pmt",
              "display" : "Revenue Center Patient Responsibility Payment Amount"
            } ]
          },
          "amount" : {
            "value" : 500.0,
            "system" : "urn:iso:std:iso:4217",
            "code" : "USD"
          }
        }, {
          "category" : {
            "coding" : [ {
              "system" : "https://bluebutton.cms.gov/resources/codesystem/adjudication",
              "code" : "https://bluebutton.cms.gov/resources/variables/rev_cntr_pmt_amt_amt",
              "display" : "Revenue Center (Medicare) Payment Amount"
            } ]
          },
          "amount" : {
            "value" : 5000.0,
            "system" : "urn:iso:std:iso:4217",
            "code" : "USD"
          }
        }, {
          "category" : {
            "coding" : [ {
              "system" : "https://bluebutton.cms.gov/resources/codesystem/adjudication",
              "code" : "https://bluebutton.cms.gov/resources/variables/rev_cntr_rate_amt",
              "display" : "Revenue Center Rate Amount"
            } ]
          },
          "amount" : {
            "value" : 5.0,
            "system" : "urn:iso:std:iso:4217",
            "code" : "USD"
          }
        }, {
          "category" : {
            "coding" : [ {
              "system" : "https://bluebutton.cms.gov/resources/codesystem/adjudication",
              "code" : "https://bluebutton.cms.gov/resources/variables/rev_cntr_tot_chrg_amt",
              "display" : "Revenue Center Total Charge Amount"
            } ]
          },
          "amount" : {
            "value" : 999.85,
            "system" : "urn:iso:std:iso:4217",
            "code" : "USD"
          }
        }, {
          "category" : {
            "coding" : [ {
              "system" : "https://bluebutton.cms.gov/resources/codesystem/adjudication",
              "code" : "https://bluebutton.cms.gov/resources/variables/rev_cntr_ncvrd_chrg_amt",
              "display" : "Revenue Center Non-Covered Charge Amount"
            } ]
          },
          "amount" : {
            "value" : 134.0,
            "system" : "urn:iso:std:iso:4217",
            "code" : "USD"
          }
        } ]
      } ],
      "totalCost" : {
        "value" : 8888.85,
        "system" : "urn:iso:std:iso:4217",
        "code" : "USD"
      },
      "payment" : {
        "amount" : {
          "value" : 693.11,
          "system" : "urn:iso:std:iso:4217",
          "code" : "USD"
        }
      }
    }
  }, {
    "resource" : {
      "resourceType" : "ExplanationOfBenefit",
      "id" : "dme-2188888888",
      "meta" : {
        "lastUpdated" : "IGNORED_FIELD"
      },
      "contained" : [ {
        "resourceType" : "ReferralRequest",
        "id" : "1",
        "status" : "completed",
        "subject" : {
          "reference" : "Patient/567834"
        },
        "requester" : {
          "agent" : {
            "identifier" : {
              "system" : "http://hl7.org/fhir/sid/us-npi",
              "value" : "1306849450"
            },
            "display" : "DR. HAROLD LEROY SMITSON II M.D."
          }
        },
        "recipient" : [ {
          "identifier" : {
            "system" : "http://hl7.org/fhir/sid/us-npi",
            "value" : "1306849450"
          },
          "display" : "DR. HAROLD LEROY SMITSON II M.D."
        } ]
      }, {
        "resourceType" : "Practitioner",
        "id" : "2",
        "identifier" : [ {
          "type" : {
            "coding" : [ {
              "system" : "http://hl7.org/fhir/sid/us-npi",
              "code" : "NPI",
              "display" : "National Provider Identifier"
            } ]
          },
          "value" : "1244444444"
        } ]
      }, {
        "resourceType" : "Observation",
        "id" : "3",
        "status" : "unknown",
        "code" : {
          "coding" : [ {
            "system" : "https://bluebutton.cms.gov/resources/variables/line_hct_hgb_type_cd",
            "code" : "R2",
            "display" : "Hematocrit Test"
          } ]
        },
        "valueQuantity" : {
          "value" : 44.4
        }
      } ],
      "extension" : [ {
        "url" : "https://bluebutton.cms.gov/resources/variables/prpayamt",
        "valueMoney" : {
          "value" : 0.0,
          "system" : "urn:iso:std:iso:4217",
          "code" : "USD"
        }
      }, {
        "url" : "https://bluebutton.cms.gov/resources/variables/carr_num",
        "valueIdentifier" : {
          "system" : "https://bluebutton.cms.gov/resources/variables/carr_num",
          "value" : "99999"
        }
      }, {
        "url" : "https://bluebutton.cms.gov/resources/variables/carr_clm_cntl_num",
        "valueIdentifier" : {
          "system" : "https://bluebutton.cms.gov/resources/variables/carr_clm_cntl_num",
          "value" : "74655592568216"
        }
      }, {
        "url" : "https://bluebutton.cms.gov/resources/variables/carr_clm_pmt_dnl_cd",
        "valueCoding" : {
          "system" : "https://bluebutton.cms.gov/resources/variables/carr_clm_pmt_dnl_cd",
          "code" : "1",
          "display" : "Physician/supplier"
        }
      }, {
        "url" : "https://bluebutton.cms.gov/resources/variables/asgmntcd",
        "valueCoding" : {
          "system" : "https://bluebutton.cms.gov/resources/variables/asgmntcd",
          "code" : "A",
          "display" : "Assigned claim"
        }
      }, {
        "url" : "https://bluebutton.cms.gov/resources/variables/clm_clncl_tril_num",
        "valueIdentifier" : {
          "system" : "https://bluebutton.cms.gov/resources/variables/clm_clncl_tril_num",
          "value" : "0"
        }
      }, {
        "url" : "https://bluebutton.cms.gov/resources/variables/carr_clm_cash_ddctbl_apld_amt",
        "valueMoney" : {
          "value" : 777.0,
          "system" : "urn:iso:std:iso:4217",
          "code" : "USD"
        }
      }, {
        "url" : "https://bluebutton.cms.gov/resources/variables/nch_clm_prvdr_pmt_amt",
        "valueMoney" : {
          "value" : 666.75,
          "system" : "urn:iso:std:iso:4217",
          "code" : "USD"
        }
      }, {
        "url" : "https://bluebutton.cms.gov/resources/variables/nch_clm_bene_pmt_amt",
        "valueMoney" : {
          "value" : 666.66,
          "system" : "urn:iso:std:iso:4217",
          "code" : "USD"
        }
      }, {
        "url" : "https://bluebutton.cms.gov/resources/variables/nch_carr_clm_sbmtd_chrg_amt",
        "valueMoney" : {
          "value" : 1752.75,
          "system" : "urn:iso:std:iso:4217",
          "code" : "USD"
        }
      }, {
        "url" : "https://bluebutton.cms.gov/resources/variables/nch_carr_clm_alowd_amt",
        "valueMoney" : {
          "value" : 754.79,
          "system" : "urn:iso:std:iso:4217",
          "code" : "USD"
        }
      } ],
      "identifier" : [ {
        "system" : "https://bluebutton.cms.gov/resources/variables/clm_id",
        "value" : "2188888888"
      }, {
        "system" : "https://bluebutton.cms.gov/resources/identifier/claim-group",
        "value" : "900"
      } ],
      "status" : "active",
      "type" : {
        "coding" : [ {
          "system" : "https://bluebutton.cms.gov/resources/variables/nch_clm_type_cd",
          "code" : "82",
          "display" : "DMERC; DMEPOS claim"
        }, {
          "system" : "https://bluebutton.cms.gov/resources/codesystem/eob-type",
          "code" : "DME"
        }, {
          "system" : "https://bluebutton.cms.gov/resources/variables/nch_near_line_rec_ident_cd",
          "code" : "M",
          "display" : "Part B DMEPOS claim record (processed by DME Regional Carrier)"
        } ]
      },
      "patient" : {
        "reference" : "Patient/567834"
      },
      "billablePeriod" : {
        "start" : "2014-02-03",
        "end" : "2014-02-03"
      },
      "referral" : {
        "reference" : "#1"
      },
      "disposition" : "01",
      "information" : [ {
        "sequence" : 1,
        "category" : {
          "coding" : [ {
            "system" : "https://bluebutton.cms.gov/resources/codesystem/information",
            "code" : "https://bluebutton.cms.gov/resources/variables/nch_wkly_proc_dt",
            "display" : "NCH Weekly Claim Processing Date"
          } ]
        },
        "timingDate" : "2014-02-14"
      } ],
      "careTeam" : [ {
        "extension" : [ {
          "url" : "https://bluebutton.cms.gov/resources/variables/prtcptng_ind_cd",
          "valueCoding" : {
            "system" : "https://bluebutton.cms.gov/resources/variables/prtcptng_ind_cd",
            "code" : "1",
            "display" : "Participating"
          }
        } ],
        "sequence" : 1,
        "provider" : {
          "reference" : "#2"
        },
        "responsible" : true,
        "role" : {
          "coding" : [ {
            "system" : "http://hl7.org/fhir/claimcareteamrole",
            "code" : "primary",
            "display" : "Primary provider"
          } ]
        },
        "qualification" : {
          "coding" : [ {
            "system" : "https://bluebutton.cms.gov/resources/variables/prvdr_spclty",
            "code" : "A5",
            "display" : "Pharmacy (DMERC)"
          } ]
        }
      }, {
        "extension" : [ {
          "url" : "https://bluebutton.cms.gov/resources/variables/prtcptng_ind_cd",
          "valueCoding" : {
            "system" : "https://bluebutton.cms.gov/resources/variables/prtcptng_ind_cd",
            "code" : "1",
            "display" : "Participating"
          }
        } ],
        "sequence" : 2,
        "provider" : {
          "identifier" : {
            "system" : "http://hl7.org/fhir/sid/us-npi",
            "value" : "1244444444"
          }
        },
        "responsible" : true,
        "role" : {
          "coding" : [ {
            "system" : "http://hl7.org/fhir/claimcareteamrole",
            "code" : "primary",
            "display" : "Primary provider"
          } ]
        },
        "qualification" : {
          "coding" : [ {
            "system" : "https://bluebutton.cms.gov/resources/variables/prvdr_spclty",
            "code" : "A5",
            "display" : "Pharmacy (DMERC)"
          } ]
        }
      } ],
      "diagnosis" : [ {
        "sequence" : 1,
        "diagnosisCodeableConcept" : {
          "coding" : [ {
            "system" : "http://hl7.org/fhir/sid/icd-10",
            "code" : "R5555"
          } ]
        },
        "type" : [ {
          "coding" : [ {
            "system" : "https://bluebutton.cms.gov/resources/codesystem/diagnosis-type",
            "code" : "principal",
            "display" : "The single medical diagnosis that is most relevant to the patient's chief complaint or need for treatment."
          } ]
        } ]
      }, {
        "sequence" : 2,
        "diagnosisCodeableConcept" : {
          "coding" : [ {
            "system" : "http://hl7.org/fhir/sid/icd-10",
            "code" : "R6666"
          } ]
        }
      }, {
        "sequence" : 3,
        "diagnosisCodeableConcept" : {
          "coding" : [ {
            "system" : "http://hl7.org/fhir/sid/icd-10",
            "code" : "G6666"
          } ]
        }
      } ],
      "insurance" : {
        "coverage" : {
          "reference" : "Coverage/part-b-567834"
        }
      },
      "item" : [ {
        "extension" : [ {
          "url" : "https://bluebutton.cms.gov/resources/variables/suplrnum",
          "valueIdentifier" : {
            "system" : "https://bluebutton.cms.gov/resources/variables/suplrnum",
            "value" : "1219966666"
          }
        }, {
          "url" : "https://bluebutton.cms.gov/resources/variables/dmerc_line_scrn_svgs_amt",
          "valueQuantity" : {
            "value" : 0.0
          }
        }, {
          "url" : "https://bluebutton.cms.gov/resources/variables/dmerc_line_mtus_cnt",
          "valueQuantity" : {
            "value" : 60,
            "unit" : "Number of services",
            "system" : "https://bluebutton.cms.gov/resources/variables/dmerc_line_mtus_cd",
            "code" : "3"
          }
        }, {
          "url" : "https://bluebutton.cms.gov/resources/variables/betos_cd",
          "valueCoding" : {
            "system" : "https://bluebutton.cms.gov/resources/variables/betos_cd",
            "code" : "D9Z"
          }
        }, {
          "url" : "https://bluebutton.cms.gov/resources/variables/line_bene_prmry_pyr_cd",
          "valueCoding" : {
            "system" : "https://bluebutton.cms.gov/resources/variables/line_bene_prmry_pyr_cd",
            "code" : "E",
            "display" : "Workers' compensation"
          }
        }, {
          "url" : "https://bluebutton.cms.gov/resources/variables/line_service_deductible",
          "valueCoding" : {
            "system" : "https://bluebutton.cms.gov/resources/variables/line_service_deductible",
            "code" : "0",
            "display" : "Service Subject to Deductible"
          }
        }, {
          "url" : "https://bluebutton.cms.gov/resources/variables/line_hct_hgb_rslt_num",
          "valueReference" : {
            "reference" : "#3"
          }
        }, {
          "url" : "http://hl7.org/fhir/sid/ndc",
          "valueCoding" : {
            "system" : "http://hl7.org/fhir/sid/ndc",
            "code" : "500904610",
            "display" : "ACETAMINOPHEN AND CODEINE PHOSPHATE - ACETAMINOPHEN; CODEINE PHOSPHATE"
          }
        } ],
        "sequence" : 1,
        "careTeamLinkId" : [ 1, 2 ],
        "diagnosisLinkId" : [ 3 ],
        "category" : {
          "coding" : [ {
            "system" : "https://bluebutton.cms.gov/resources/variables/line_cms_type_srvc_cd",
            "code" : "P",
            "display" : "Lump sum purchase of DME, prosthetics orthotics"
          } ]
        },
        "service" : {
          "coding" : [ {
            "system" : "https://bluebutton.cms.gov/resources/codesystem/hcpcs",
            "version" : "3",
            "code" : "345"
          } ]
        },
        "modifier" : [ {
          "coding" : [ {
            "system" : "https://bluebutton.cms.gov/resources/codesystem/hcpcs",
            "version" : "3",
            "code" : "YY"
          } ]
        } ],
        "servicedPeriod" : {
          "start" : "2014-02-03",
          "end" : "2014-02-03"
        },
        "locationCodeableConcept" : {
          "extension" : [ {
            "url" : "https://bluebutton.cms.gov/resources/variables/prvdr_state_cd",
            "valueCoding" : {
              "system" : "https://bluebutton.cms.gov/resources/variables/prvdr_state_cd",
              "code" : "MO"
            }
          }, {
            "url" : "https://bluebutton.cms.gov/resources/variables/dmerc_line_prcng_state_cd",
            "valueCoding" : {
              "system" : "https://bluebutton.cms.gov/resources/variables/dmerc_line_prcng_state_cd",
              "code" : "AL"
            }
          }, {
            "url" : "https://bluebutton.cms.gov/resources/variables/dmerc_line_supplr_type_cd",
            "valueCoding" : {
              "system" : "https://bluebutton.cms.gov/resources/variables/dmerc_line_supplr_type_cd",
              "code" : "3",
              "display" : "Suppliers (other than sole proprietorship) for whom employer identification (EI) numbers are used in coding the ID field."
            }
          } ],
          "coding" : [ {
            "system" : "https://bluebutton.cms.gov/resources/variables/line_place_of_srvc_cd",
            "code" : "12",
            "display" : "Home. Location, other than a hospital or other facility, where the patient receives care in a private residence."
          } ]
        },
        "quantity" : {
          "value" : 60
        },
        "adjudication" : [ {
          "category" : {
            "coding" : [ {
              "system" : "https://bluebutton.cms.gov/resources/codesystem/adjudication",
              "code" : "https://bluebutton.cms.gov/resources/variables/line_prmry_alowd_chrg_amt",
              "display" : "Line Primary Payer Allowed Charge Amount"
            } ]
          },
          "amount" : {
            "value" : 20.29,
            "system" : "urn:iso:std:iso:4217",
            "code" : "USD"
          }
        }, {
          "category" : {
            "coding" : [ {
              "system" : "https://bluebutton.cms.gov/resources/codesystem/adjudication",
              "code" : "https://bluebutton.cms.gov/resources/variables/line_dme_prchs_price_amt",
              "display" : "Line DME Purchase Price Amount"
            } ]
          },
          "amount" : {
            "value" : 82.29,
            "system" : "urn:iso:std:iso:4217",
            "code" : "USD"
          }
        }, {
          "extension" : [ {
            "url" : "https://bluebutton.cms.gov/resources/variables/line_pmt_80_100_cd",
            "valueCoding" : {
              "system" : "https://bluebutton.cms.gov/resources/variables/line_pmt_80_100_cd",
              "code" : "0",
              "display" : "80%"
            }
          } ],
          "category" : {
            "coding" : [ {
              "system" : "https://bluebutton.cms.gov/resources/codesystem/adjudication",
              "code" : "https://bluebutton.cms.gov/resources/variables/line_nch_pmt_amt",
              "display" : "Line NCH Medicare Payment Amount"
            } ]
          },
          "amount" : {
            "value" : 123.45,
            "system" : "urn:iso:std:iso:4217",
            "code" : "USD"
          }
        }, {
          "category" : {
            "coding" : [ {
              "system" : "https://bluebutton.cms.gov/resources/codesystem/adjudication",
              "code" : "https://bluebutton.cms.gov/resources/variables/line_bene_pmt_amt",
              "display" : "Line Payment Amount to Beneficiary"
            } ]
          },
          "amount" : {
            "value" : 11.0,
            "system" : "urn:iso:std:iso:4217",
            "code" : "USD"
          }
        }, {
          "category" : {
            "coding" : [ {
              "system" : "https://bluebutton.cms.gov/resources/codesystem/adjudication",
              "code" : "https://bluebutton.cms.gov/resources/variables/line_prvdr_pmt_amt",
              "display" : "Line Provider Payment Amount"
            } ]
          },
          "amount" : {
            "value" : 120.0,
            "system" : "urn:iso:std:iso:4217",
            "code" : "USD"
          }
        }, {
          "category" : {
            "coding" : [ {
              "system" : "https://bluebutton.cms.gov/resources/codesystem/adjudication",
              "code" : "https://bluebutton.cms.gov/resources/variables/line_bene_ptb_ddctbl_amt",
              "display" : "Line Beneficiary Part B Deductible Amount"
            } ]
          },
          "amount" : {
            "value" : 18.0,
            "system" : "urn:iso:std:iso:4217",
            "code" : "USD"
          }
        }, {
          "category" : {
            "coding" : [ {
              "system" : "https://bluebutton.cms.gov/resources/codesystem/adjudication",
              "code" : "https://bluebutton.cms.gov/resources/variables/line_bene_prmry_pyr_pd_amt",
              "display" : "Line Primary Payer (if not Medicare) Paid Amount"
            } ]
          },
          "amount" : {
            "value" : 11.0,
            "system" : "urn:iso:std:iso:4217",
            "code" : "USD"
          }
        }, {
          "category" : {
            "coding" : [ {
              "system" : "https://bluebutton.cms.gov/resources/codesystem/adjudication",
              "code" : "https://bluebutton.cms.gov/resources/variables/line_coinsrnc_amt",
              "display" : "Line Beneficiary Coinsurance Amount"
            } ]
          },
          "amount" : {
            "value" : 20.2,
            "system" : "urn:iso:std:iso:4217",
            "code" : "USD"
          }
        }, {
          "category" : {
            "coding" : [ {
              "system" : "https://bluebutton.cms.gov/resources/codesystem/adjudication",
              "code" : "https://bluebutton.cms.gov/resources/variables/line_sbmtd_chrg_amt",
              "display" : "Line Submitted Charge Amount"
            } ]
          },
          "amount" : {
            "value" : 130.45,
            "system" : "urn:iso:std:iso:4217",
            "code" : "USD"
          }
        }, {
          "category" : {
            "coding" : [ {
              "system" : "https://bluebutton.cms.gov/resources/codesystem/adjudication",
              "code" : "https://bluebutton.cms.gov/resources/variables/line_alowd_chrg_amt",
              "display" : "Line Allowed Charge Amount"
            } ]
          },
          "amount" : {
            "value" : 129.45,
            "system" : "urn:iso:std:iso:4217",
            "code" : "USD"
          }
        }, {
          "category" : {
            "coding" : [ {
              "system" : "https://bluebutton.cms.gov/resources/codesystem/adjudication",
              "code" : "https://bluebutton.cms.gov/resources/variables/line_prcsg_ind_cd",
              "display" : "Line Processing Indicator Code"
            } ]
          },
          "reason" : {
            "coding" : [ {
              "system" : "https://bluebutton.cms.gov/resources/variables/line_prcsg_ind_cd",
              "code" : "A",
              "display" : "Allowed"
            } ]
          }
        } ]
      } ],
      "payment" : {
        "amount" : {
          "value" : 777.75,
          "system" : "urn:iso:std:iso:4217",
          "code" : "USD"
        }
      }
    }
  }, {
    "resource" : {
      "resourceType" : "ExplanationOfBenefit",
      "id" : "hha-2925555555",
      "meta" : {
        "lastUpdated" : "IGNORED_FIELD"
      },
      "extension" : [ {
        "url" : "https://bluebutton.cms.gov/resources/variables/clm_mdcr_non_pmt_rsn_cd",
        "valueCoding" : {
          "system" : "https://bluebutton.cms.gov/resources/variables/clm_mdcr_non_pmt_rsn_cd",
          "code" : "P",
          "display" : "Payment requested"
        }
      }, {
        "url" : "https://bluebutton.cms.gov/resources/variables/prpayamt",
        "valueMoney" : {
          "value" : 11.0,
          "system" : "urn:iso:std:iso:4217",
          "code" : "USD"
        }
      }, {
        "url" : "https://bluebutton.cms.gov/resources/variables/fi_num",
        "valueIdentifier" : {
          "system" : "https://bluebutton.cms.gov/resources/variables/fi_num",
          "value" : "15999"
        }
      }, {
        "url" : "https://bluebutton.cms.gov/resources/variables/fi_doc_clm_cntl_num",
        "valueIdentifier" : {
          "system" : "https://bluebutton.cms.gov/resources/variables/fi_doc_clm_cntl_num",
          "value" : "08683096577486"
        }
      }, {
        "url" : "https://bluebutton.cms.gov/resources/variables/fi_orig_clm_cntl_num",
        "valueIdentifier" : {
          "system" : "https://bluebutton.cms.gov/resources/variables/fi_orig_clm_cntl_num",
          "value" : "10493204767560565"
        }
      } ],
      "identifier" : [ {
        "system" : "https://bluebutton.cms.gov/resources/variables/clm_id",
        "value" : "2925555555"
      }, {
        "system" : "https://bluebutton.cms.gov/resources/identifier/claim-group",
        "value" : "900"
      } ],
      "status" : "active",
      "type" : {
        "coding" : [ {
          "system" : "https://bluebutton.cms.gov/resources/variables/nch_clm_type_cd",
          "code" : "10",
          "display" : "Home Health Agency (HHA) claim"
        }, {
          "system" : "https://bluebutton.cms.gov/resources/codesystem/eob-type",
          "code" : "HHA"
        }, {
          "system" : "https://bluebutton.cms.gov/resources/variables/nch_near_line_rec_ident_cd",
          "code" : "W",
          "display" : "Part B institutional claim record (outpatient [HOP], HHA)"
        }, {
          "system" : "https://bluebutton.cms.gov/resources/variables/clm_srvc_clsfctn_type_cd",
          "code" : "2"
        } ]
      },
      "patient" : {
        "reference" : "Patient/567834"
      },
      "billablePeriod" : {
        "start" : "2015-06-23",
        "end" : "2015-06-23"
      },
      "provider" : {
        "identifier" : {
          "system" : "https://bluebutton.cms.gov/resources/variables/prvdr_num",
          "value" : "45645"
        }
      },
      "organization" : {
        "identifier" : {
          "system" : "http://hl7.org/fhir/sid/us-npi",
          "value" : "1811111111"
        }
      },
      "facility" : {
        "extension" : [ {
          "url" : "https://bluebutton.cms.gov/resources/variables/clm_fac_type_cd",
          "valueCoding" : {
            "system" : "https://bluebutton.cms.gov/resources/variables/clm_fac_type_cd",
            "code" : "3",
            "display" : "Home Health Agency (HHA)"
          }
        } ],
        "identifier" : {
          "system" : "http://hl7.org/fhir/sid/us-npi",
          "value" : "1811111111"
        }
      },
      "information" : [ {
        "sequence" : 1,
        "category" : {
          "coding" : [ {
            "system" : "https://bluebutton.cms.gov/resources/codesystem/information",
            "code" : "https://bluebutton.cms.gov/resources/variables/nch_wkly_proc_dt",
            "display" : "NCH Weekly Claim Processing Date"
          } ]
        },
        "timingDate" : "2015-11-06"
      }, {
        "sequence" : 2,
        "category" : {
          "coding" : [ {
            "system" : "https://bluebutton.cms.gov/resources/codesystem/information",
            "code" : "https://bluebutton.cms.gov/resources/variables/clm_freq_cd",
            "display" : "Claim Frequency Code"
          } ]
        },
        "code" : {
          "coding" : [ {
            "system" : "https://bluebutton.cms.gov/resources/variables/clm_freq_cd",
            "code" : "1",
            "display" : "Admit thru discharge claim"
          } ]
        }
      }, {
        "sequence" : 3,
        "category" : {
          "coding" : [ {
            "system" : "https://bluebutton.cms.gov/resources/codesystem/information",
            "code" : "https://bluebutton.cms.gov/resources/variables/ptnt_dschrg_stus_cd",
            "display" : "Patient Discharge Status Code"
          } ]
        },
        "code" : {
          "coding" : [ {
            "system" : "https://bluebutton.cms.gov/resources/variables/ptnt_dschrg_stus_cd",
            "code" : "30",
            "display" : "Still patient."
          } ]
        }
      }, {
        "sequence" : 4,
        "category" : {
          "coding" : [ {
            "system" : "https://bluebutton.cms.gov/resources/codesystem/information",
            "code" : "https://bluebutton.cms.gov/resources/variables/nch_prmry_pyr_cd",
            "display" : "NCH Primary Payer Code (if not Medicare)"
          } ]
        },
        "code" : {
          "coding" : [ {
            "system" : "https://bluebutton.cms.gov/resources/variables/nch_prmry_pyr_cd",
            "code" : "A",
            "display" : "Employer group health plan (EGHP) insurance for an aged beneficiary"
          } ]
        }
      }, {
        "sequence" : 5,
        "category" : {
          "coding" : [ {
            "system" : "https://bluebutton.cms.gov/resources/codesystem/information",
            "code" : "https://bluebutton.cms.gov/resources/variables/clm_hha_lupa_ind_cd",
            "display" : "Claim HHA Low Utilization Payment Adjustment (LUPA) Indicator Code"
          } ]
        },
        "code" : {
          "coding" : [ {
            "system" : "https://bluebutton.cms.gov/resources/variables/clm_hha_lupa_ind_cd",
            "code" : "L",
            "display" : "Low utilization payment adjustment (LUPA) claim"
          } ]
        }
      }, {
        "sequence" : 6,
        "category" : {
          "coding" : [ {
            "system" : "https://bluebutton.cms.gov/resources/codesystem/information",
            "code" : "https://bluebutton.cms.gov/resources/variables/clm_hha_rfrl_cd",
            "display" : "Claim HHA Referral Code"
          } ]
        },
        "code" : {
          "coding" : [ {
            "system" : "https://bluebutton.cms.gov/resources/variables/clm_hha_rfrl_cd",
            "code" : "1",
            "display" : "Physician referral - The patient was admitted upon the recommendation of a personal physician."
          } ]
        }
      } ],
      "careTeam" : [ {
        "sequence" : 1,
        "provider" : {
          "identifier" : {
            "system" : "http://hl7.org/fhir/sid/us-npi",
            "value" : "2222222222"
          }
        },
        "role" : {
          "coding" : [ {
            "system" : "http://hl7.org/fhir/claimcareteamrole",
            "code" : "primary",
            "display" : "Primary provider"
          } ]
        }
      }, {
        "sequence" : 2,
        "provider" : {
          "identifier" : {
            "system" : "http://hl7.org/fhir/sid/us-npi",
            "value" : "345345345"
          }
        },
        "role" : {
          "coding" : [ {
            "system" : "http://hl7.org/fhir/claimcareteamrole",
            "code" : "primary",
            "display" : "Primary provider"
          } ]
        }
      } ],
      "diagnosis" : [ {
        "sequence" : 1,
        "diagnosisCodeableConcept" : {
          "coding" : [ {
            "system" : "http://hl7.org/fhir/sid/icd-9-cm",
            "code" : "H5555"
          } ]
        },
        "type" : [ {
          "coding" : [ {
            "system" : "https://bluebutton.cms.gov/resources/codesystem/diagnosis-type",
            "code" : "principal",
            "display" : "The single medical diagnosis that is most relevant to the patient's chief complaint or need for treatment."
          } ]
        } ]
      }, {
        "sequence" : 2,
        "diagnosisCodeableConcept" : {
          "coding" : [ {
            "system" : "http://hl7.org/fhir/sid/icd-10",
            "code" : "H8888"
          } ]
        }
      }, {
        "sequence" : 3,
        "diagnosisCodeableConcept" : {
          "coding" : [ {
            "system" : "http://hl7.org/fhir/sid/icd-10",
            "code" : "R2222"
          } ]
        },
        "type" : [ {
          "coding" : [ {
            "system" : "https://bluebutton.cms.gov/resources/codesystem/diagnosis-type",
            "code" : "external-first",
            "display" : "The code used to identify the 1st external cause of injury, poisoning, or other adverse effect."
          } ]
        } ]
      }, {
        "sequence" : 4,
        "diagnosisCodeableConcept" : {
          "coding" : [ {
            "system" : "http://hl7.org/fhir/sid/icd-10",
            "code" : "R3333"
          } ]
        },
        "type" : [ {
          "coding" : [ {
            "system" : "https://bluebutton.cms.gov/resources/codesystem/diagnosis-type",
            "code" : "external",
            "display" : "A code used to identify an external cause of injury, poisoning, or other adverse effect."
          } ]
        } ]
      } ],
      "insurance" : {
        "coverage" : {
          "reference" : "Coverage/part-b-567834"
        }
      },
      "hospitalization" : {
        "start" : "2015-06-23"
      },
      "item" : [ {
        "extension" : [ {
          "url" : "https://bluebutton.cms.gov/resources/variables/rev_cntr_ndc_qty",
          "valueQuantity" : {
            "value" : 666,
            "system" : "https://bluebutton.cms.gov/resources/variables/rev_cntr_ndc_qty_qlfr_cd",
            "code" : "DD"
          }
        } ],
        "sequence" : 1,
        "careTeamLinkId" : [ 2 ],
        "revenue" : {
          "extension" : [ {
            "url" : "https://bluebutton.cms.gov/resources/variables/rev_cntr_stus_ind_cd",
            "valueCoding" : {
              "system" : "https://bluebutton.cms.gov/resources/variables/rev_cntr_stus_ind_cd",
              "code" : "A",
              "display" : "Services not paid under OPPS; uses a different fee schedule (e.g., ambulance, PT, mammography)"
            }
          }, {
            "url" : "https://bluebutton.cms.gov/resources/variables/rev_cntr_ddctbl_coinsrnc_cd",
            "valueCoding" : {
              "system" : "https://bluebutton.cms.gov/resources/variables/rev_cntr_ddctbl_coinsrnc_cd",
              "code" : "4",
              "display" : "No charge or units associated with this revenue center code. (For multiple HCPCS per single revenue center code) For revenue center code 0001, the following MSP override values may be present:"
            }
          } ],
          "coding" : [ {
            "system" : "https://bluebutton.cms.gov/resources/variables/rev_cntr",
            "code" : "0023",
            "display" : "Home Health services paid under PPS submitted as TOB 32X and 33X, effective 10/00. This code may appear multiple times on a claim to identify different HIPPS/Home Health Resource Groups (HRG)."
          } ]
        },
        "service" : {
          "coding" : [ {
            "system" : "https://bluebutton.cms.gov/resources/codesystem/hcpcs",
            "code" : "2GGGG"
          } ]
        },
        "modifier" : [ {
          "coding" : [ {
            "system" : "https://bluebutton.cms.gov/resources/codesystem/hcpcs",
            "code" : "KO"
          } ]
        } ],
        "servicedDate" : "2015-06-23",
        "locationAddress" : {
          "state" : "UT"
        },
        "quantity" : {
          "value" : 1
        },
        "adjudication" : [ {
          "category" : {
            "coding" : [ {
              "system" : "https://bluebutton.cms.gov/resources/codesystem/adjudication",
              "code" : "https://bluebutton.cms.gov/resources/variables/rev_cntr_1st_ansi_cd",
              "display" : "Revenue Center 1st ANSI Code"
            } ]
          },
          "reason" : {
            "coding" : [ {
              "system" : "https://bluebutton.cms.gov/resources/variables/rev_cntr_1st_ansi_cd",
              "code" : "CO120"
            } ]
          }
        }, {
          "category" : {
            "coding" : [ {
              "system" : "https://bluebutton.cms.gov/resources/codesystem/adjudication",
              "code" : "https://bluebutton.cms.gov/resources/variables/rev_cntr_rate_amt",
              "display" : "Revenue Center Rate Amount"
            } ]
          },
          "amount" : {
            "value" : 0.0,
            "system" : "urn:iso:std:iso:4217",
            "code" : "USD"
          }
        }, {
          "category" : {
            "coding" : [ {
              "system" : "https://bluebutton.cms.gov/resources/codesystem/adjudication",
              "code" : "https://bluebutton.cms.gov/resources/variables/rev_cntr_tot_chrg_amt",
              "display" : "Revenue Center Total Charge Amount"
            } ]
          },
          "amount" : {
            "value" : 25.0,
            "system" : "urn:iso:std:iso:4217",
            "code" : "USD"
          }
        }, {
          "category" : {
            "coding" : [ {
              "system" : "https://bluebutton.cms.gov/resources/codesystem/adjudication",
              "code" : "https://bluebutton.cms.gov/resources/variables/rev_cntr_ncvrd_chrg_amt",
              "display" : "Revenue Center Non-Covered Charge Amount"
            } ]
          },
          "amount" : {
            "value" : 24.0,
            "system" : "urn:iso:std:iso:4217",
            "code" : "USD"
          }
        }, {
          "category" : {
            "coding" : [ {
              "system" : "https://bluebutton.cms.gov/resources/codesystem/adjudication",
              "code" : "https://bluebutton.cms.gov/resources/variables/rev_cntr_pmt_amt_amt",
              "display" : "Revenue Center (Medicare) Payment Amount"
            } ]
          },
          "amount" : {
            "value" : 26.0,
            "system" : "urn:iso:std:iso:4217",
            "code" : "USD"
          }
        } ]
      } ],
      "totalCost" : {
        "value" : 199.99,
        "system" : "urn:iso:std:iso:4217",
        "code" : "USD"
      },
      "payment" : {
        "amount" : {
          "value" : 188.0,
          "system" : "urn:iso:std:iso:4217",
          "code" : "USD"
        }
      },
      "benefitBalance" : [ {
        "category" : {
          "coding" : [ {
            "system" : "http://hl7.org/fhir/benefit-category",
            "code" : "medical",
            "display" : "Medical Health Coverage"
          } ]
        },
        "financial" : [ {
          "type" : {
            "coding" : [ {
              "system" : "https://bluebutton.cms.gov/resources/codesystem/benefit-balance",
              "code" : "https://bluebutton.cms.gov/resources/variables/clm_hha_tot_visit_cnt",
              "display" : "Claim HHA Total Visit Count"
            } ]
          },
          "usedUnsignedInt" : 3
        } ]
      } ]
    }
  }, {
    "resource" : {
      "resourceType" : "ExplanationOfBenefit",
      "id" : "inpatient-333333222222",
      "meta" : {
        "lastUpdated" : "IGNORED_FIELD"
      },
      "extension" : [ {
        "url" : "https://bluebutton.cms.gov/resources/variables/ime_op_clm_val_amt",
        "valueMoney" : {
          "value" : 66125.51,
          "system" : "urn:iso:std:iso:4217",
          "code" : "USD"
        }
      }, {
        "url" : "https://bluebutton.cms.gov/resources/variables/dsh_op_clm_val_amt",
        "valueMoney" : {
          "value" : 25.0,
          "system" : "urn:iso:std:iso:4217",
          "code" : "USD"
        }
      }, {
        "url" : "https://bluebutton.cms.gov/resources/variables/clm_pass_thru_per_diem_amt",
        "valueMoney" : {
          "value" : 10.0,
          "system" : "urn:iso:std:iso:4217",
          "code" : "USD"
        }
      }, {
        "url" : "https://bluebutton.cms.gov/resources/variables/nch_profnl_cmpnt_chrg_amt",
        "valueMoney" : {
          "value" : 4.0,
          "system" : "urn:iso:std:iso:4217",
          "code" : "USD"
        }
      }, {
        "url" : "https://bluebutton.cms.gov/resources/variables/clm_tot_pps_cptl_amt",
        "valueMoney" : {
          "value" : 646.23,
          "system" : "urn:iso:std:iso:4217",
          "code" : "USD"
        }
      }, {
        "url" : "https://bluebutton.cms.gov/resources/variables/ime_op_clm_val_amt",
        "valueMoney" : {
          "value" : 66125.51,
          "system" : "urn:iso:std:iso:4217",
          "code" : "USD"
        }
      }, {
        "url" : "https://bluebutton.cms.gov/resources/variables/clm_uncompd_care_pmt_amt",
        "valueMoney" : {
          "value" : 120.56,
          "system" : "urn:iso:std:iso:4217",
          "code" : "USD"
        }
      }, {
        "url" : "https://bluebutton.cms.gov/resources/variables/nch_bene_ip_ddctbl_amt",
        "valueMoney" : {
          "value" : 112.0,
          "system" : "urn:iso:std:iso:4217",
          "code" : "USD"
        }
      }, {
        "url" : "https://bluebutton.cms.gov/resources/variables/nch_bene_pta_coinsrnc_lblty_amt",
        "valueMoney" : {
          "value" : 5.0,
          "system" : "urn:iso:std:iso:4217",
          "code" : "USD"
        }
      }, {
        "url" : "https://bluebutton.cms.gov/resources/variables/nch_ip_ncvrd_chrg_amt",
        "valueMoney" : {
          "value" : 33.0,
          "system" : "urn:iso:std:iso:4217",
          "code" : "USD"
        }
      }, {
        "url" : "https://bluebutton.cms.gov/resources/variables/nch_ip_tot_ddctn_amt",
        "valueMoney" : {
          "value" : 14.0,
          "system" : "urn:iso:std:iso:4217",
          "code" : "USD"
        }
      }, {
        "url" : "https://bluebutton.cms.gov/resources/variables/clm_pps_cptl_dsprprtnt_shr_amt",
        "valueMoney" : {
          "value" : 25.09,
          "system" : "urn:iso:std:iso:4217",
          "code" : "USD"
        }
      }, {
        "url" : "https://bluebutton.cms.gov/resources/variables/clm_pps_cptl_excptn_amt",
        "valueMoney" : {
          "value" : 0.0,
          "system" : "urn:iso:std:iso:4217",
          "code" : "USD"
        }
      }, {
        "url" : "https://bluebutton.cms.gov/resources/variables/clm_pps_cptl_fsp_amt",
        "valueMoney" : {
          "value" : 552.56,
          "system" : "urn:iso:std:iso:4217",
          "code" : "USD"
        }
      }, {
        "url" : "https://bluebutton.cms.gov/resources/variables/clm_pps_cptl_ime_amt",
        "valueMoney" : {
          "value" : 68.58,
          "system" : "urn:iso:std:iso:4217",
          "code" : "USD"
        }
      }, {
        "url" : "https://bluebutton.cms.gov/resources/variables/clm_pps_cptl_outlier_amt",
        "valueMoney" : {
          "value" : 0.0,
          "system" : "urn:iso:std:iso:4217",
          "code" : "USD"
        }
      }, {
        "url" : "https://bluebutton.cms.gov/resources/variables/clm_pps_old_cptl_hld_hrmls_amt",
        "valueMoney" : {
          "value" : 0.0,
          "system" : "urn:iso:std:iso:4217",
          "code" : "USD"
        }
      }, {
        "url" : "https://bluebutton.cms.gov/resources/variables/nch_drg_outlier_aprvd_pmt_amt",
        "valueMoney" : {
          "value" : 23.99,
          "system" : "urn:iso:std:iso:4217",
          "code" : "USD"
        }
      }, {
        "url" : "https://bluebutton.cms.gov/resources/variables/nch_bene_blood_ddctbl_lblty_am",
        "valueMoney" : {
          "value" : 6.0,
          "system" : "urn:iso:std:iso:4217",
          "code" : "USD"
        }
      }, {
        "url" : "https://bluebutton.cms.gov/resources/variables/clm_mdcr_non_pmt_rsn_cd",
        "valueCoding" : {
          "system" : "https://bluebutton.cms.gov/resources/variables/clm_mdcr_non_pmt_rsn_cd",
          "code" : "A",
          "display" : "Covered worker's compensation (Obsolete)"
        }
      }, {
        "url" : "https://bluebutton.cms.gov/resources/variables/prpayamt",
        "valueMoney" : {
          "value" : 11.0,
          "system" : "urn:iso:std:iso:4217",
          "code" : "USD"
        }
      }, {
        "url" : "https://bluebutton.cms.gov/resources/variables/fi_num",
        "valueIdentifier" : {
          "system" : "https://bluebutton.cms.gov/resources/variables/fi_num",
          "value" : "8299"
        }
      }, {
        "url" : "https://bluebutton.cms.gov/resources/variables/fi_doc_clm_cntl_num",
        "valueIdentifier" : {
          "system" : "https://bluebutton.cms.gov/resources/variables/fi_doc_clm_cntl_num",
          "value" : "28486613848"
        }
      }, {
        "url" : "https://bluebutton.cms.gov/resources/variables/fi_orig_clm_cntl_num",
        "valueIdentifier" : {
          "system" : "https://bluebutton.cms.gov/resources/variables/fi_orig_clm_cntl_num",
          "value" : "261660474641024"
        }
      } ],
      "identifier" : [ {
        "system" : "https://bluebutton.cms.gov/resources/variables/clm_id",
        "value" : "333333222222"
      }, {
        "system" : "https://bluebutton.cms.gov/resources/identifier/claim-group",
        "value" : "900"
      } ],
      "status" : "active",
      "type" : {
        "coding" : [ {
          "system" : "https://bluebutton.cms.gov/resources/variables/nch_clm_type_cd",
          "code" : "60",
          "display" : "Inpatient claim"
        }, {
          "system" : "https://bluebutton.cms.gov/resources/codesystem/eob-type",
          "code" : "INPATIENT"
        }, {
          "system" : "http://hl7.org/fhir/ex-claimtype",
          "code" : "institutional",
          "display" : "Institutional"
        }, {
          "system" : "https://bluebutton.cms.gov/resources/variables/nch_near_line_rec_ident_cd",
          "code" : "V",
          "display" : "Part A institutional claim record (inpatient [IP], skilled nursing facility [SNF], hospice [HOS], or home health agency [HHA])"
        }, {
          "system" : "https://bluebutton.cms.gov/resources/variables/clm_srvc_clsfctn_type_cd",
          "code" : "1"
        } ]
      },
      "patient" : {
        "reference" : "Patient/567834"
      },
      "billablePeriod" : {
        "extension" : [ {
          "url" : "https://bluebutton.cms.gov/resources/variables/claim_query_cd",
          "valueCoding" : {
            "system" : "https://bluebutton.cms.gov/resources/variables/claim_query_cd",
            "code" : "3",
            "display" : "Final bill"
          }
        } ],
        "start" : "2016-01-15",
        "end" : "2016-01-27"
      },
      "provider" : {
        "identifier" : {
          "system" : "https://bluebutton.cms.gov/resources/variables/prvdr_num",
          "value" : "777776"
        }
      },
      "organization" : {
        "identifier" : {
          "system" : "http://hl7.org/fhir/sid/us-npi",
          "value" : "5555553305"
        }
      },
      "facility" : {
        "extension" : [ {
          "url" : "https://bluebutton.cms.gov/resources/variables/clm_fac_type_cd",
          "valueCoding" : {
            "system" : "https://bluebutton.cms.gov/resources/variables/clm_fac_type_cd",
            "code" : "1",
            "display" : "Hospital"
          }
        } ],
        "identifier" : {
          "system" : "http://hl7.org/fhir/sid/us-npi",
          "value" : "5555553305"
        }
      },
      "information" : [ {
        "sequence" : 1,
        "category" : {
          "coding" : [ {
            "system" : "https://bluebutton.cms.gov/resources/codesystem/information",
            "code" : "https://bluebutton.cms.gov/resources/variables/nch_wkly_proc_dt",
            "display" : "NCH Weekly Claim Processing Date"
          } ]
        },
        "timingDate" : "2016-02-26"
      }, {
        "sequence" : 2,
        "category" : {
          "coding" : [ {
            "system" : "https://bluebutton.cms.gov/resources/codesystem/information",
            "code" : "https://bluebutton.cms.gov/resources/variables/nch_ptnt_stus_ind_cd",
            "display" : "NCH Patient Status Indicator Code"
          } ]
        },
        "code" : {
          "coding" : [ {
            "system" : "https://bluebutton.cms.gov/resources/variables/nch_ptnt_stus_ind_cd",
            "code" : "A",
            "display" : "Discharged"
          } ]
        }
      }, {
        "sequence" : 3,
        "category" : {
          "coding" : [ {
            "system" : "https://bluebutton.cms.gov/resources/codesystem/information",
            "code" : "https://bluebutton.cms.gov/resources/variables/clm_ip_admsn_type_cd",
            "display" : "Claim Inpatient Admission Type Code"
          } ]
        },
        "code" : {
          "coding" : [ {
            "system" : "https://bluebutton.cms.gov/resources/variables/clm_ip_admsn_type_cd",
            "code" : "1",
            "display" : "Emergency - The patient required immediate medical intervention as a result of severe, life threatening, or potentially disabling conditions. Generally, the patient was admitted through the emergency room."
          } ]
        }
      }, {
        "sequence" : 4,
        "category" : {
          "coding" : [ {
            "system" : "https://bluebutton.cms.gov/resources/codesystem/information",
            "code" : "https://bluebutton.cms.gov/resources/variables/clm_src_ip_admsn_cd",
            "display" : "Claim Source Inpatient Admission Code"
          } ]
        },
        "code" : {
          "coding" : [ {
            "system" : "https://bluebutton.cms.gov/resources/variables/clm_src_ip_admsn_cd",
            "code" : "4"
          } ]
        }
      }, {
        "sequence" : 5,
        "category" : {
          "coding" : [ {
            "system" : "https://bluebutton.cms.gov/resources/codesystem/information",
            "code" : "https://bluebutton.cms.gov/resources/variables/nch_blood_pnts_frnshd_qty",
            "display" : "NCH Blood Pints Furnished Quantity"
          } ]
        },
        "valueQuantity" : {
          "value" : 19,
          "unit" : "pint",
          "system" : "http://unitsofmeasure.org",
          "code" : "[pt_us]"
        }
      }, {
        "sequence" : 6,
        "category" : {
          "coding" : [ {
            "system" : "https://bluebutton.cms.gov/resources/codesystem/information",
            "code" : "https://bluebutton.cms.gov/resources/variables/clm_mco_pd_sw",
            "display" : "Claim MCO Paid Switch"
          } ]
        },
        "code" : {
          "coding" : [ {
            "system" : "https://bluebutton.cms.gov/resources/variables/clm_mco_pd_sw",
            "code" : "0",
            "display" : "No managed care organization (MCO) payment"
          } ]
        }
      }, {
        "sequence" : 7,
        "category" : {
          "coding" : [ {
            "system" : "https://bluebutton.cms.gov/resources/codesystem/information",
            "code" : "https://bluebutton.cms.gov/resources/variables/clm_freq_cd",
            "display" : "Claim Frequency Code"
          } ]
        },
        "code" : {
          "coding" : [ {
            "system" : "https://bluebutton.cms.gov/resources/variables/clm_freq_cd",
            "code" : "1",
            "display" : "Admit thru discharge claim"
          } ]
        }
      }, {
        "sequence" : 8,
        "category" : {
          "coding" : [ {
            "system" : "https://bluebutton.cms.gov/resources/codesystem/information",
            "code" : "https://bluebutton.cms.gov/resources/variables/ptnt_dschrg_stus_cd",
            "display" : "Patient Discharge Status Code"
          } ]
        },
        "code" : {
          "coding" : [ {
            "system" : "https://bluebutton.cms.gov/resources/variables/ptnt_dschrg_stus_cd",
            "code" : "51",
            "display" : "Discharged/transferred to a Hospice  medical facility."
          } ]
        }
      }, {
        "sequence" : 9,
        "category" : {
          "coding" : [ {
            "system" : "https://bluebutton.cms.gov/resources/codesystem/information",
            "code" : "https://bluebutton.cms.gov/resources/variables/nch_prmry_pyr_cd",
            "display" : "NCH Primary Payer Code (if not Medicare)"
          } ]
        },
        "code" : {
          "coding" : [ {
            "system" : "https://bluebutton.cms.gov/resources/variables/nch_prmry_pyr_cd",
            "code" : "A",
            "display" : "Employer group health plan (EGHP) insurance for an aged beneficiary"
          } ]
        }
      } ],
      "careTeam" : [ {
        "sequence" : 1,
        "provider" : {
          "identifier" : {
            "system" : "http://hl7.org/fhir/sid/us-npi",
            "value" : "3333444555"
          }
        },
        "role" : {
          "coding" : [ {
            "system" : "http://hl7.org/fhir/claimcareteamrole",
            "code" : "assist",
            "display" : "Assisting Provider"
          } ]
        }
      }, {
        "sequence" : 2,
        "provider" : {
          "identifier" : {
            "system" : "http://hl7.org/fhir/sid/us-npi",
            "value" : "161943433"
          }
        },
        "role" : {
          "coding" : [ {
            "system" : "http://hl7.org/fhir/claimcareteamrole",
            "code" : "other",
            "display" : "Other"
          } ]
        }
      }, {
        "sequence" : 3,
        "provider" : {
          "identifier" : {
            "system" : "http://hl7.org/fhir/sid/us-npi",
            "value" : "161999999"
          }
        },
        "role" : {
          "coding" : [ {
            "system" : "http://hl7.org/fhir/claimcareteamrole",
            "code" : "primary",
            "display" : "Primary provider"
          } ]
        }
      }, {
        "sequence" : 4,
        "provider" : {
          "identifier" : {
            "system" : "http://hl7.org/fhir/sid/us-npi",
            "value" : "345345345"
          }
        },
        "role" : {
          "coding" : [ {
            "system" : "http://hl7.org/fhir/claimcareteamrole",
            "code" : "primary",
            "display" : "Primary provider"
          } ]
        }
      } ],
      "diagnosis" : [ {
        "sequence" : 1,
        "packageCode" : {
          "coding" : [ {
            "system" : "https://bluebutton.cms.gov/resources/variables/clm_drg_cd",
            "code" : "695"
          } ]
        }
      }, {
        "sequence" : 2,
        "diagnosisCodeableConcept" : {
          "coding" : [ {
            "system" : "http://hl7.org/fhir/sid/icd-10",
            "code" : "R4444"
          } ]
        },
        "type" : [ {
          "coding" : [ {
            "system" : "https://bluebutton.cms.gov/resources/codesystem/diagnosis-type",
            "code" : "admitting",
            "display" : "The diagnosis given as the reason why the patient was admitted to the hospital."
          } ]
        } ]
      }, {
        "extension" : [ {
          "url" : "https://bluebutton.cms.gov/resources/variables/clm_poa_ind_sw1",
          "valueCoding" : {
            "system" : "https://bluebutton.cms.gov/resources/variables/clm_poa_ind_sw1",
            "code" : "Y",
            "display" : "Diagnosis was present at the time of admission (POA)"
          }
        } ],
        "sequence" : 3,
        "diagnosisCodeableConcept" : {
          "coding" : [ {
            "system" : "http://hl7.org/fhir/sid/icd-10",
            "code" : "R5555"
          } ]
        },
        "type" : [ {
          "coding" : [ {
            "system" : "https://bluebutton.cms.gov/resources/codesystem/diagnosis-type",
            "code" : "principal",
            "display" : "The single medical diagnosis that is most relevant to the patient's chief complaint or need for treatment."
          } ]
        } ]
      }, {
        "extension" : [ {
          "url" : "https://bluebutton.cms.gov/resources/variables/clm_poa_ind_sw1",
          "valueCoding" : {
            "system" : "https://bluebutton.cms.gov/resources/variables/clm_poa_ind_sw1",
            "code" : "N",
            "display" : "Diagnosis was not present at the time of admission"
          }
        } ],
        "sequence" : 4,
        "diagnosisCodeableConcept" : {
          "coding" : [ {
            "system" : "http://hl7.org/fhir/sid/icd-10",
            "code" : "A7777"
          } ]
        }
      }, {
        "extension" : [ {
          "url" : "https://bluebutton.cms.gov/resources/variables/clm_poa_ind_sw1",
          "valueCoding" : {
            "system" : "https://bluebutton.cms.gov/resources/variables/clm_poa_ind_sw1",
            "code" : "N",
            "display" : "Diagnosis was not present at the time of admission"
          }
        } ],
        "sequence" : 5,
        "diagnosisCodeableConcept" : {
          "coding" : [ {
            "system" : "http://hl7.org/fhir/sid/icd-10",
            "code" : "R8888"
          } ]
        }
      }, {
        "extension" : [ {
          "url" : "https://bluebutton.cms.gov/resources/variables/clm_poa_ind_sw1",
          "valueCoding" : {
            "system" : "https://bluebutton.cms.gov/resources/variables/clm_poa_ind_sw1",
            "code" : "N",
            "display" : "Diagnosis was not present at the time of admission"
          }
        } ],
        "sequence" : 6,
        "diagnosisCodeableConcept" : {
          "coding" : [ {
            "system" : "http://hl7.org/fhir/sid/icd-10",
            "code" : "K71234"
          } ]
        }
      }, {
        "extension" : [ {
          "url" : "https://bluebutton.cms.gov/resources/variables/clm_poa_ind_sw1",
          "valueCoding" : {
            "system" : "https://bluebutton.cms.gov/resources/variables/clm_poa_ind_sw1",
            "code" : "N",
            "display" : "Diagnosis was not present at the time of admission"
          }
        } ],
        "sequence" : 7,
        "diagnosisCodeableConcept" : {
          "coding" : [ {
            "system" : "http://hl7.org/fhir/sid/icd-10",
            "code" : "7840",
            "display" : "HEADACHE"
          } ]
        }
      }, {
        "extension" : [ {
          "url" : "https://bluebutton.cms.gov/resources/variables/clm_poa_ind_sw1",
          "valueCoding" : {
            "system" : "https://bluebutton.cms.gov/resources/variables/clm_poa_ind_sw1",
            "code" : "N",
            "display" : "Diagnosis was not present at the time of admission"
          }
        } ],
        "sequence" : 8,
        "diagnosisCodeableConcept" : {
          "coding" : [ {
            "system" : "http://hl7.org/fhir/sid/icd-10",
            "code" : "R2222"
          } ]
        },
        "type" : [ {
          "coding" : [ {
            "system" : "https://bluebutton.cms.gov/resources/codesystem/diagnosis-type",
            "code" : "external-first",
            "display" : "The code used to identify the 1st external cause of injury, poisoning, or other adverse effect."
          } ]
        }, {
          "coding" : [ {
            "system" : "https://bluebutton.cms.gov/resources/codesystem/diagnosis-type",
            "code" : "principal",
            "display" : "The single medical diagnosis that is most relevant to the patient's chief complaint or need for treatment."
          } ]
        } ]
      }, {
        "extension" : [ {
          "url" : "https://bluebutton.cms.gov/resources/variables/clm_poa_ind_sw1",
          "valueCoding" : {
            "system" : "https://bluebutton.cms.gov/resources/variables/clm_poa_ind_sw1",
            "code" : "Y",
            "display" : "Diagnosis was present at the time of admission (POA)"
          }
        } ],
        "sequence" : 9,
        "diagnosisCodeableConcept" : {
          "coding" : [ {
            "system" : "http://hl7.org/fhir/sid/icd-10",
            "code" : "R3333"
          } ]
        },
        "type" : [ {
          "coding" : [ {
            "system" : "https://bluebutton.cms.gov/resources/codesystem/diagnosis-type",
            "code" : "external",
            "display" : "A code used to identify an external cause of injury, poisoning, or other adverse effect."
          } ]
        } ]
      } ],
      "procedure" : [ {
        "sequence" : 1,
        "date" : "2016-01-16T00:00:00+00:00",
        "procedureCodeableConcept" : {
          "coding" : [ {
            "system" : "http://hl7.org/fhir/sid/icd-10",
            "code" : "0TCDDEE"
          } ]
        }
      }, {
        "sequence" : 2,
        "date" : "2016-01-16T00:00:00+00:00",
        "procedureCodeableConcept" : {
          "coding" : [ {
            "system" : "http://hl7.org/fhir/sid/icd-10",
            "code" : "302DDAA"
          } ]
        }
      }, {
        "sequence" : 3,
        "date" : "2016-01-15T00:00:00+00:00",
        "procedureCodeableConcept" : {
          "coding" : [ {
            "system" : "http://hl7.org/fhir/sid/icd-10",
            "code" : "302ZZXX"
          } ]
        }
      }, {
        "sequence" : 4,
        "date" : "2016-01-17T00:00:00+00:00",
        "procedureCodeableConcept" : {
          "coding" : [ {
            "system" : "http://hl7.org/fhir/sid/icd-10",
            "code" : "5566AAA"
          } ]
        }
      }, {
        "sequence" : 5,
        "date" : "2016-01-24T00:00:00+00:00",
        "procedureCodeableConcept" : {
          "coding" : [ {
            "system" : "http://hl7.org/fhir/sid/icd-10",
            "code" : "6677BBB"
          } ]
        }
      }, {
        "sequence" : 6,
        "date" : "2016-01-24T00:00:00+00:00",
        "procedureCodeableConcept" : {
          "coding" : [ {
            "system" : "http://hl7.org/fhir/sid/icd-10",
            "code" : "8109",
            "display" : "REFUSION OF SPINE"
          } ]
        }
      } ],
      "insurance" : {
        "coverage" : {
          "reference" : "Coverage/part-a-567834"
        }
      },
      "hospitalization" : {
        "start" : "2016-01-15",
        "end" : "2016-01-27"
      },
      "item" : [ {
        "extension" : [ {
          "url" : "https://bluebutton.cms.gov/resources/variables/rev_cntr_ndc_qty",
          "valueQuantity" : {
            "value" : 77,
            "system" : "https://bluebutton.cms.gov/resources/variables/rev_cntr_ndc_qty_qlfr_cd",
            "code" : "GG"
          }
        } ],
        "sequence" : 1,
        "careTeamLinkId" : [ 4 ],
        "revenue" : {
          "extension" : [ {
            "url" : "https://bluebutton.cms.gov/resources/variables/rev_cntr_ddctbl_coinsrnc_cd",
            "valueCoding" : {
              "system" : "https://bluebutton.cms.gov/resources/variables/rev_cntr_ddctbl_coinsrnc_cd",
              "code" : "A"
            }
          } ],
          "coding" : [ {
            "system" : "https://bluebutton.cms.gov/resources/variables/rev_cntr",
            "code" : "6767"
          } ]
        },
        "service" : {
          "coding" : [ {
            "system" : "https://bluebutton.cms.gov/resources/codesystem/hcpcs",
            "code" : "M55"
          } ]
        },
        "locationAddress" : {
          "state" : "IA"
        },
        "quantity" : {
          "value" : 0
        },
        "adjudication" : [ {
          "category" : {
            "coding" : [ {
              "system" : "https://bluebutton.cms.gov/resources/codesystem/adjudication",
              "code" : "https://bluebutton.cms.gov/resources/variables/rev_cntr_rate_amt",
              "display" : "Revenue Center Rate Amount"
            } ]
          },
          "amount" : {
            "value" : 0.0,
            "system" : "urn:iso:std:iso:4217",
            "code" : "USD"
          }
        }, {
          "category" : {
            "coding" : [ {
              "system" : "https://bluebutton.cms.gov/resources/codesystem/adjudication",
              "code" : "https://bluebutton.cms.gov/resources/variables/rev_cntr_tot_chrg_amt",
              "display" : "Revenue Center Total Charge Amount"
            } ]
          },
          "amount" : {
            "value" : 84888.88,
            "system" : "urn:iso:std:iso:4217",
            "code" : "USD"
          }
        }, {
          "category" : {
            "coding" : [ {
              "system" : "https://bluebutton.cms.gov/resources/codesystem/adjudication",
              "code" : "https://bluebutton.cms.gov/resources/variables/rev_cntr_ncvrd_chrg_amt",
              "display" : "Revenue Center Non-Covered Charge Amount"
            } ]
          },
          "amount" : {
            "value" : 3699.0,
            "system" : "urn:iso:std:iso:4217",
            "code" : "USD"
          }
        } ]
      } ],
      "totalCost" : {
        "value" : 84999.37,
        "system" : "urn:iso:std:iso:4217",
        "code" : "USD"
      },
      "payment" : {
        "amount" : {
          "value" : 7699.48,
          "system" : "urn:iso:std:iso:4217",
          "code" : "USD"
        }
      },
      "benefitBalance" : [ {
        "category" : {
          "coding" : [ {
            "system" : "http://hl7.org/fhir/benefit-category",
            "code" : "medical",
            "display" : "Medical Health Coverage"
          } ]
        },
        "financial" : [ {
          "type" : {
            "coding" : [ {
              "system" : "https://bluebutton.cms.gov/resources/codesystem/benefit-balance",
              "code" : "https://bluebutton.cms.gov/resources/variables/bene_tot_coinsrnc_days_cnt",
              "display" : "Beneficiary Total Coinsurance Days Count"
            } ]
          },
          "usedUnsignedInt" : 0
        }, {
          "type" : {
            "coding" : [ {
              "system" : "https://bluebutton.cms.gov/resources/codesystem/benefit-balance",
              "code" : "https://bluebutton.cms.gov/resources/variables/clm_non_utlztn_days_cnt",
              "display" : "Claim Medicare Non Utilization Days Count"
            } ]
          },
          "usedUnsignedInt" : 0
        }, {
          "type" : {
            "coding" : [ {
              "system" : "https://bluebutton.cms.gov/resources/codesystem/benefit-balance",
              "code" : "https://bluebutton.cms.gov/resources/variables/clm_utlztn_day_cnt",
              "display" : "Claim Medicare Utilization Day Count"
            } ]
          },
          "usedUnsignedInt" : 12
        } ]
      } ]
    }
  }, {
    "resource" : {
      "resourceType" : "ExplanationOfBenefit",
      "id" : "snf-777777777",
      "meta" : {
        "lastUpdated" : "IGNORED_FIELD"
      },
      "extension" : [ {
        "url" : "https://bluebutton.cms.gov/resources/variables/nch_bene_ip_ddctbl_amt",
        "valueMoney" : {
          "value" : 112.0,
          "system" : "urn:iso:std:iso:4217",
          "code" : "USD"
        }
      }, {
        "url" : "https://bluebutton.cms.gov/resources/variables/nch_bene_pta_coinsrnc_lblty_amt",
        "valueMoney" : {
          "value" : 5.0,
          "system" : "urn:iso:std:iso:4217",
          "code" : "USD"
        }
      }, {
        "url" : "https://bluebutton.cms.gov/resources/variables/nch_ip_ncvrd_chrg_amt",
        "valueMoney" : {
          "value" : 33.0,
          "system" : "urn:iso:std:iso:4217",
          "code" : "USD"
        }
      }, {
        "url" : "https://bluebutton.cms.gov/resources/variables/nch_ip_tot_ddctn_amt",
        "valueMoney" : {
          "value" : 14.0,
          "system" : "urn:iso:std:iso:4217",
          "code" : "USD"
        }
      }, {
        "url" : "https://bluebutton.cms.gov/resources/variables/clm_pps_cptl_dsprprtnt_shr_amt",
        "valueMoney" : {
          "value" : 7.0,
          "system" : "urn:iso:std:iso:4217",
          "code" : "USD"
        }
      }, {
        "url" : "https://bluebutton.cms.gov/resources/variables/clm_pps_cptl_excptn_amt",
        "valueMoney" : {
          "value" : 5.0,
          "system" : "urn:iso:std:iso:4217",
          "code" : "USD"
        }
      }, {
        "url" : "https://bluebutton.cms.gov/resources/variables/clm_pps_cptl_fsp_amt",
        "valueMoney" : {
          "value" : 9.0,
          "system" : "urn:iso:std:iso:4217",
          "code" : "USD"
        }
      }, {
        "url" : "https://bluebutton.cms.gov/resources/variables/clm_pps_cptl_ime_amt",
        "valueMoney" : {
          "value" : 6.0,
          "system" : "urn:iso:std:iso:4217",
          "code" : "USD"
        }
      }, {
        "url" : "https://bluebutton.cms.gov/resources/variables/clm_pps_cptl_outlier_amt",
        "valueMoney" : {
          "value" : 8.0,
          "system" : "urn:iso:std:iso:4217",
          "code" : "USD"
        }
      }, {
        "url" : "https://bluebutton.cms.gov/resources/variables/clm_pps_old_cptl_hld_hrmls_amt",
        "valueMoney" : {
          "value" : 4.0,
          "system" : "urn:iso:std:iso:4217",
          "code" : "USD"
        }
      }, {
        "url" : "https://bluebutton.cms.gov/resources/variables/nch_bene_blood_ddctbl_lblty_am",
        "valueMoney" : {
          "value" : 6.0,
          "system" : "urn:iso:std:iso:4217",
          "code" : "USD"
        }
      }, {
        "url" : "https://bluebutton.cms.gov/resources/variables/clm_mdcr_non_pmt_rsn_cd",
        "valueCoding" : {
          "system" : "https://bluebutton.cms.gov/resources/variables/clm_mdcr_non_pmt_rsn_cd",
          "code" : "B",
          "display" : "Benefit exhausted"
        }
      }, {
        "url" : "https://bluebutton.cms.gov/resources/variables/prpayamt",
        "valueMoney" : {
          "value" : 11.0,
          "system" : "urn:iso:std:iso:4217",
          "code" : "USD"
        }
      }, {
        "url" : "https://bluebutton.cms.gov/resources/variables/fi_num",
        "valueIdentifier" : {
          "system" : "https://bluebutton.cms.gov/resources/variables/fi_num",
          "value" : "11111"
        }
      }, {
        "url" : "https://bluebutton.cms.gov/resources/variables/fi_doc_clm_cntl_num",
        "valueIdentifier" : {
          "system" : "https://bluebutton.cms.gov/resources/variables/fi_doc_clm_cntl_num",
          "value" : "23443453453"
        }
      }, {
        "url" : "https://bluebutton.cms.gov/resources/variables/fi_orig_clm_cntl_num",
        "valueIdentifier" : {
          "system" : "https://bluebutton.cms.gov/resources/variables/fi_orig_clm_cntl_num",
          "value" : "34534535535"
        }
      } ],
      "identifier" : [ {
        "system" : "https://bluebutton.cms.gov/resources/variables/clm_id",
        "value" : "777777777"
      }, {
        "system" : "https://bluebutton.cms.gov/resources/identifier/claim-group",
        "value" : "900"
      } ],
      "status" : "active",
      "type" : {
        "coding" : [ {
          "system" : "https://bluebutton.cms.gov/resources/variables/nch_clm_type_cd",
          "code" : "20",
          "display" : "Non swing bed Skilled Nursing Facility (SNF) claim"
        }, {
          "system" : "https://bluebutton.cms.gov/resources/codesystem/eob-type",
          "code" : "SNF"
        }, {
          "system" : "http://hl7.org/fhir/ex-claimtype",
          "code" : "institutional",
          "display" : "Institutional"
        }, {
          "system" : "https://bluebutton.cms.gov/resources/variables/nch_near_line_rec_ident_cd",
          "code" : "V",
          "display" : "Part A institutional claim record (inpatient [IP], skilled nursing facility [SNF], hospice [HOS], or home health agency [HHA])"
        }, {
          "system" : "https://bluebutton.cms.gov/resources/variables/clm_srvc_clsfctn_type_cd",
          "code" : "1"
        } ]
      },
      "patient" : {
        "reference" : "Patient/567834"
      },
      "billablePeriod" : {
        "extension" : [ {
          "url" : "https://bluebutton.cms.gov/resources/variables/claim_query_cd",
          "valueCoding" : {
            "system" : "https://bluebutton.cms.gov/resources/variables/claim_query_cd",
            "code" : "3",
            "display" : "Final bill"
          }
        } ],
        "start" : "2013-12-01",
        "end" : "2013-12-18"
      },
      "provider" : {
        "identifier" : {
          "system" : "https://bluebutton.cms.gov/resources/variables/prvdr_num",
          "value" : "299999"
        }
      },
      "organization" : {
        "identifier" : {
          "system" : "http://hl7.org/fhir/sid/us-npi",
          "value" : "1111111111"
        }
      },
      "facility" : {
        "extension" : [ {
          "url" : "https://bluebutton.cms.gov/resources/variables/clm_fac_type_cd",
          "valueCoding" : {
            "system" : "https://bluebutton.cms.gov/resources/variables/clm_fac_type_cd",
            "code" : "2",
            "display" : "Skilled Nursing Facility (SNF)"
          }
        } ],
        "identifier" : {
          "system" : "http://hl7.org/fhir/sid/us-npi",
          "value" : "1111111111"
        }
      },
      "information" : [ {
        "sequence" : 1,
        "category" : {
          "coding" : [ {
            "system" : "https://bluebutton.cms.gov/resources/codesystem/information",
            "code" : "https://bluebutton.cms.gov/resources/variables/nch_wkly_proc_dt",
            "display" : "NCH Weekly Claim Processing Date"
          } ]
        },
        "timingDate" : "2014-02-14"
      }, {
        "sequence" : 2,
        "category" : {
          "coding" : [ {
            "system" : "https://bluebutton.cms.gov/resources/codesystem/information",
            "code" : "https://bluebutton.cms.gov/resources/variables/clm_ip_admsn_type_cd",
            "display" : "Claim Inpatient Admission Type Code"
          } ]
        },
        "code" : {
          "coding" : [ {
            "system" : "https://bluebutton.cms.gov/resources/variables/clm_ip_admsn_type_cd",
            "code" : "3",
            "display" : "Elective - The patient's condition permitted adequate time to schedule the availability of suitable accommodations."
          } ]
        }
      }, {
        "sequence" : 3,
        "category" : {
          "coding" : [ {
            "system" : "https://bluebutton.cms.gov/resources/codesystem/information",
            "code" : "https://bluebutton.cms.gov/resources/variables/clm_src_ip_admsn_cd",
            "display" : "Claim Source Inpatient Admission Code"
          } ]
        },
        "code" : {
          "coding" : [ {
            "system" : "https://bluebutton.cms.gov/resources/variables/clm_src_ip_admsn_cd",
            "code" : "4"
          } ]
        }
      }, {
        "sequence" : 4,
        "category" : {
          "coding" : [ {
            "system" : "https://bluebutton.cms.gov/resources/codesystem/information",
            "code" : "https://bluebutton.cms.gov/resources/variables/nch_vrfd_ncvrd_stay_from_dt",
            "display" : "NCH Verified Non-covered Stay From Date"
          } ]
        },
        "timingPeriod" : {
          "start" : "2002-01-11",
          "end" : "2002-01-21"
        }
      }, {
        "sequence" : 5,
        "category" : {
          "coding" : [ {
            "system" : "https://bluebutton.cms.gov/resources/codesystem/information",
            "code" : "https://bluebutton.cms.gov/resources/variables/nch_bene_mdcr_bnfts_exhtd_dt_i",
            "display" : "NCH Beneficiary Medicare Benefits Exhausted Date"
          } ]
        },
        "timingDate" : "2002-01-31"
      }, {
        "sequence" : 6,
        "category" : {
          "coding" : [ {
            "system" : "https://bluebutton.cms.gov/resources/codesystem/information",
            "code" : "https://bluebutton.cms.gov/resources/variables/nch_ptnt_stus_ind_cd",
            "display" : "NCH Patient Status Indicator Code"
          } ]
        },
        "code" : {
          "coding" : [ {
            "system" : "https://bluebutton.cms.gov/resources/variables/nch_ptnt_stus_ind_cd",
            "code" : "A",
            "display" : "Discharged"
          } ]
        }
      }, {
        "sequence" : 7,
        "category" : {
          "coding" : [ {
            "system" : "https://bluebutton.cms.gov/resources/codesystem/information",
            "code" : "https://bluebutton.cms.gov/resources/variables/nch_blood_pnts_frnshd_qty",
            "display" : "NCH Blood Pints Furnished Quantity"
          } ]
        },
        "valueQuantity" : {
          "value" : 19,
          "unit" : "pint",
          "system" : "http://unitsofmeasure.org",
          "code" : "[pt_us]"
        }
      }, {
        "sequence" : 8,
        "category" : {
          "coding" : [ {
            "system" : "https://bluebutton.cms.gov/resources/codesystem/information",
            "code" : "https://bluebutton.cms.gov/resources/variables/nch_qlfyd_stay_from_dt",
            "display" : "NCH Qualified Stay From Date"
          } ]
        },
        "timingPeriod" : {
          "start" : "2013-09-23",
          "end" : "2013-11-05"
        }
      }, {
        "sequence" : 9,
        "category" : {
          "coding" : [ {
            "system" : "https://bluebutton.cms.gov/resources/codesystem/information",
            "code" : "https://bluebutton.cms.gov/resources/variables/clm_mco_pd_sw",
            "display" : "Claim MCO Paid Switch"
          } ]
        },
        "code" : {
          "coding" : [ {
            "system" : "https://bluebutton.cms.gov/resources/variables/clm_mco_pd_sw",
            "code" : "0",
            "display" : "No managed care organization (MCO) payment"
          } ]
        }
      }, {
        "sequence" : 10,
        "category" : {
          "coding" : [ {
            "system" : "https://bluebutton.cms.gov/resources/codesystem/information",
            "code" : "https://bluebutton.cms.gov/resources/variables/clm_freq_cd",
            "display" : "Claim Frequency Code"
          } ]
        },
        "code" : {
          "coding" : [ {
            "system" : "https://bluebutton.cms.gov/resources/variables/clm_freq_cd",
            "code" : "1",
            "display" : "Admit thru discharge claim"
          } ]
        }
      }, {
        "sequence" : 11,
        "category" : {
          "coding" : [ {
            "system" : "https://bluebutton.cms.gov/resources/codesystem/information",
            "code" : "https://bluebutton.cms.gov/resources/variables/ptnt_dschrg_stus_cd",
            "display" : "Patient Discharge Status Code"
          } ]
        },
        "code" : {
          "coding" : [ {
            "system" : "https://bluebutton.cms.gov/resources/variables/ptnt_dschrg_stus_cd",
            "code" : "1"
          } ]
        }
      }, {
        "sequence" : 12,
        "category" : {
          "coding" : [ {
            "system" : "https://bluebutton.cms.gov/resources/codesystem/information",
            "code" : "https://bluebutton.cms.gov/resources/variables/nch_prmry_pyr_cd",
            "display" : "NCH Primary Payer Code (if not Medicare)"
          } ]
        },
        "code" : {
          "coding" : [ {
            "system" : "https://bluebutton.cms.gov/resources/variables/nch_prmry_pyr_cd",
            "code" : "A",
            "display" : "Employer group health plan (EGHP) insurance for an aged beneficiary"
          } ]
        }
      } ],
      "careTeam" : [ {
        "sequence" : 1,
        "provider" : {
          "identifier" : {
            "system" : "http://hl7.org/fhir/sid/us-npi",
            "value" : "3333333333"
          }
        },
        "role" : {
          "coding" : [ {
            "system" : "http://hl7.org/fhir/claimcareteamrole",
            "code" : "assist",
            "display" : "Assisting Provider"
          } ]
        }
      }, {
        "sequence" : 2,
        "provider" : {
          "identifier" : {
            "system" : "http://hl7.org/fhir/sid/us-npi",
            "value" : "4444444444"
          }
        },
        "role" : {
          "coding" : [ {
            "system" : "http://hl7.org/fhir/claimcareteamrole",
            "code" : "other",
            "display" : "Other"
          } ]
        }
      }, {
        "sequence" : 3,
        "provider" : {
          "identifier" : {
            "system" : "http://hl7.org/fhir/sid/us-npi",
            "value" : "2222222222"
          }
        },
        "role" : {
          "coding" : [ {
            "system" : "http://hl7.org/fhir/claimcareteamrole",
            "code" : "primary",
            "display" : "Primary provider"
          } ]
        }
      }, {
        "sequence" : 4,
        "provider" : {
          "identifier" : {
            "system" : "http://hl7.org/fhir/sid/us-npi",
            "value" : "345345345"
          }
        },
        "role" : {
          "coding" : [ {
            "system" : "http://hl7.org/fhir/claimcareteamrole",
            "code" : "primary",
            "display" : "Primary provider"
          } ]
        }
      } ],
      "diagnosis" : [ {
        "sequence" : 1,
        "packageCode" : {
          "coding" : [ {
            "system" : "https://bluebutton.cms.gov/resources/variables/clm_drg_cd",
            "code" : "645"
          } ]
        }
      }, {
        "sequence" : 2,
        "diagnosisCodeableConcept" : {
          "coding" : [ {
            "system" : "http://hl7.org/fhir/sid/icd-9-cm",
            "code" : "R4444"
          } ]
        },
        "type" : [ {
          "coding" : [ {
            "system" : "https://bluebutton.cms.gov/resources/codesystem/diagnosis-type",
            "code" : "admitting",
            "display" : "The diagnosis given as the reason why the patient was admitted to the hospital."
          } ]
        } ]
      }, {
        "sequence" : 3,
        "diagnosisCodeableConcept" : {
          "coding" : [ {
            "system" : "http://hl7.org/fhir/sid/icd-9-cm",
            "code" : "R5555"
          } ]
        },
        "type" : [ {
          "coding" : [ {
            "system" : "https://bluebutton.cms.gov/resources/codesystem/diagnosis-type",
            "code" : "principal",
            "display" : "The single medical diagnosis that is most relevant to the patient's chief complaint or need for treatment."
          } ]
        } ]
      }, {
        "sequence" : 4,
        "diagnosisCodeableConcept" : {
          "coding" : [ {
            "system" : "http://hl7.org/fhir/sid/icd-9-cm",
            "code" : "R6666"
          } ]
        }
      }, {
        "sequence" : 5,
        "diagnosisCodeableConcept" : {
          "coding" : [ {
            "system" : "http://hl7.org/fhir/sid/icd-9-cm",
            "code" : "R2222"
          } ]
        },
        "type" : [ {
          "coding" : [ {
            "system" : "https://bluebutton.cms.gov/resources/codesystem/diagnosis-type",
            "code" : "external-first",
            "display" : "The code used to identify the 1st external cause of injury, poisoning, or other adverse effect."
          } ]
        } ]
      }, {
        "sequence" : 6,
        "diagnosisCodeableConcept" : {
          "coding" : [ {
            "system" : "http://hl7.org/fhir/sid/icd-9-cm",
            "code" : "R3333"
          } ]
        },
        "type" : [ {
          "coding" : [ {
            "system" : "https://bluebutton.cms.gov/resources/codesystem/diagnosis-type",
            "code" : "external",
            "display" : "A code used to identify an external cause of injury, poisoning, or other adverse effect."
          } ]
        } ]
      } ],
      "procedure" : [ {
        "sequence" : 1,
        "date" : "2016-01-16T00:00:00+00:00",
        "procedureCodeableConcept" : {
          "coding" : [ {
            "system" : "http://hl7.org/fhir/sid/icd-9-cm",
            "code" : "0TCCCCC"
          } ]
        }
      } ],
      "insurance" : {
        "coverage" : {
          "reference" : "Coverage/part-a-567834"
        }
      },
      "hospitalization" : {
        "start" : "2013-11-05",
        "end" : "2013-12-18"
      },
      "item" : [ {
        "sequence" : 1,
        "careTeamLinkId" : [ 4 ],
        "revenue" : {
          "extension" : [ {
            "url" : "https://bluebutton.cms.gov/resources/variables/rev_cntr_ddctbl_coinsrnc_cd",
            "valueCoding" : {
              "system" : "https://bluebutton.cms.gov/resources/variables/rev_cntr_ddctbl_coinsrnc_cd",
              "code" : "A"
            }
          } ],
          "coding" : [ {
            "system" : "https://bluebutton.cms.gov/resources/variables/rev_cntr",
            "code" : "22"
          } ]
        },
        "service" : {
          "coding" : [ {
            "system" : "https://bluebutton.cms.gov/resources/codesystem/hcpcs",
            "code" : "MMM"
          } ]
        },
        "locationAddress" : {
          "state" : "FL"
        },
        "quantity" : {
          "value" : 477
        },
        "adjudication" : [ {
          "category" : {
            "coding" : [ {
              "system" : "https://bluebutton.cms.gov/resources/codesystem/adjudication",
              "code" : "https://bluebutton.cms.gov/resources/variables/rev_cntr_rate_amt",
              "display" : "Revenue Center Rate Amount"
            } ]
          },
          "amount" : {
            "value" : 5.0,
            "system" : "urn:iso:std:iso:4217",
            "code" : "USD"
          }
        }, {
          "category" : {
            "coding" : [ {
              "system" : "https://bluebutton.cms.gov/resources/codesystem/adjudication",
              "code" : "https://bluebutton.cms.gov/resources/variables/rev_cntr_tot_chrg_amt",
              "display" : "Revenue Center Total Charge Amount"
            } ]
          },
          "amount" : {
            "value" : 95.0,
            "system" : "urn:iso:std:iso:4217",
            "code" : "USD"
          }
        }, {
          "category" : {
            "coding" : [ {
              "system" : "https://bluebutton.cms.gov/resources/codesystem/adjudication",
              "code" : "https://bluebutton.cms.gov/resources/variables/rev_cntr_ncvrd_chrg_amt",
              "display" : "Revenue Center Non-Covered Charge Amount"
            } ]
          },
          "amount" : {
            "value" : 88.0,
            "system" : "urn:iso:std:iso:4217",
            "code" : "USD"
          }
        } ]
      } ],
      "totalCost" : {
        "value" : 5555.03,
        "system" : "urn:iso:std:iso:4217",
        "code" : "USD"
      },
      "payment" : {
        "amount" : {
          "value" : 3333.33,
          "system" : "urn:iso:std:iso:4217",
          "code" : "USD"
        }
      },
      "benefitBalance" : [ {
        "category" : {
          "coding" : [ {
            "system" : "http://hl7.org/fhir/benefit-category",
            "code" : "medical",
            "display" : "Medical Health Coverage"
          } ]
        },
        "financial" : [ {
          "type" : {
            "coding" : [ {
              "system" : "https://bluebutton.cms.gov/resources/codesystem/benefit-balance",
              "code" : "https://bluebutton.cms.gov/resources/variables/clm_utlztn_day_cnt",
              "display" : "Claim Medicare Utilization Day Count"
            } ]
          },
          "usedUnsignedInt" : 17
        }, {
          "type" : {
            "coding" : [ {
              "system" : "https://bluebutton.cms.gov/resources/codesystem/benefit-balance",
              "code" : "https://bluebutton.cms.gov/resources/variables/bene_tot_coinsrnc_days_cnt",
              "display" : "Beneficiary Total Coinsurance Days Count"
            } ]
          },
          "usedUnsignedInt" : 17
        }, {
          "type" : {
            "coding" : [ {
              "system" : "https://bluebutton.cms.gov/resources/codesystem/benefit-balance",
              "code" : "https://bluebutton.cms.gov/resources/variables/clm_non_utlztn_days_cnt",
              "display" : "Claim Medicare Non Utilization Days Count"
            } ]
          },
          "usedUnsignedInt" : 0
        } ]
      } ]
    }
  }, {
    "resource" : {
      "resourceType" : "ExplanationOfBenefit",
      "id" : "pde-89",
      "meta" : {
        "lastUpdated" : "IGNORED_FIELD"
      },
      "identifier" : [ {
        "system" : "https://bluebutton.cms.gov/resources/variables/pde_id",
        "value" : "89"
      }, {
        "system" : "https://bluebutton.cms.gov/resources/identifier/claim-group",
        "value" : "900"
      }, {
        "system" : "https://bluebutton.cms.gov/resources/variables/rx_srvc_rfrnc_num",
        "value" : "799999"
      } ],
      "status" : "active",
      "type" : {
        "coding" : [ {
          "system" : "https://bluebutton.cms.gov/resources/codesystem/eob-type",
          "code" : "PDE"
        }, {
          "system" : "http://hl7.org/fhir/ex-claimtype",
          "code" : "pharmacy",
          "display" : "Pharmacy"
        } ]
      },
      "patient" : {
        "reference" : "Patient/567834"
      },
      "billablePeriod" : {
        "start" : "2015-05-12",
        "end" : "2015-05-12"
      },
      "organization" : {
        "identifier" : {
          "type" : {
            "coding" : [ {
              "system" : "http://hl7.org/fhir/sid/us-npi",
              "code" : "NPI",
              "display" : "National Provider Identifier"
            } ]
          },
          "system" : "http://hl7.org/fhir/sid/us-npi",
          "value" : "1023011079"
        },
        "display" : "ADVANTAGE HOME HEALTH CARE, INC."
      },
      "facility" : {
        "extension" : [ {
          "url" : "https://bluebutton.cms.gov/resources/variables/phrmcy_srvc_type_cd",
          "valueCoding" : {
            "system" : "https://bluebutton.cms.gov/resources/variables/phrmcy_srvc_type_cd",
            "code" : "01",
            "display" : "Community/retail pharmacy"
          }
        } ],
        "identifier" : {
          "type" : {
            "coding" : [ {
              "system" : "http://hl7.org/fhir/sid/us-npi",
              "code" : "NPI",
              "display" : "National Provider Identifier"
            } ]
          },
          "system" : "http://hl7.org/fhir/sid/us-npi",
          "value" : "1023011079"
        },
        "display" : "ADVANTAGE HOME HEALTH CARE, INC."
      },
      "information" : [ {
        "sequence" : 1,
        "category" : {
          "coding" : [ {
            "system" : "https://bluebutton.cms.gov/resources/codesystem/information",
            "code" : "https://bluebutton.cms.gov/resources/variables/daw_prod_slctn_cd",
            "display" : "Dispense as Written (DAW) Product Selection Code"
          } ]
        },
        "code" : {
          "coding" : [ {
            "system" : "https://bluebutton.cms.gov/resources/variables/daw_prod_slctn_cd",
            "code" : "0",
            "display" : "No Product Selection Indicated (may also have missing values)"
          } ]
        }
      }, {
        "sequence" : 2,
        "category" : {
          "coding" : [ {
            "system" : "https://bluebutton.cms.gov/resources/codesystem/information",
            "code" : "https://bluebutton.cms.gov/resources/variables/dspnsng_stus_cd",
            "display" : "Dispensing Status Code"
          } ]
        },
        "code" : {
          "coding" : [ {
            "system" : "https://bluebutton.cms.gov/resources/variables/dspnsng_stus_cd",
            "code" : "P",
            "display" : "Partial fill"
          } ]
        }
      }, {
        "sequence" : 3,
        "category" : {
          "coding" : [ {
            "system" : "https://bluebutton.cms.gov/resources/codesystem/information",
            "code" : "https://bluebutton.cms.gov/resources/variables/drug_cvrg_stus_cd",
            "display" : "Drug Coverage Status Code"
          } ]
        },
        "code" : {
          "coding" : [ {
            "system" : "https://bluebutton.cms.gov/resources/variables/drug_cvrg_stus_cd",
            "code" : "C",
            "display" : "Covered"
          } ]
        }
      }, {
        "sequence" : 4,
        "category" : {
          "coding" : [ {
            "system" : "https://bluebutton.cms.gov/resources/codesystem/information",
            "code" : "https://bluebutton.cms.gov/resources/variables/adjstmt_dltn_cd",
            "display" : "Adjustment Deletion Code"
          } ]
        },
        "code" : {
          "coding" : [ {
            "system" : "https://bluebutton.cms.gov/resources/variables/adjstmt_dltn_cd",
            "code" : "A",
            "display" : "Adjustment"
          } ]
        }
      }, {
        "sequence" : 5,
        "category" : {
          "coding" : [ {
            "system" : "https://bluebutton.cms.gov/resources/codesystem/information",
            "code" : "https://bluebutton.cms.gov/resources/variables/nstd_frmt_cd",
            "display" : "Non-Standard Format Code"
          } ]
        },
        "code" : {
          "coding" : [ {
            "system" : "https://bluebutton.cms.gov/resources/variables/nstd_frmt_cd",
            "code" : "X",
            "display" : "X12 837"
          } ]
        }
      }, {
        "sequence" : 6,
        "category" : {
          "coding" : [ {
            "system" : "https://bluebutton.cms.gov/resources/codesystem/information",
            "code" : "https://bluebutton.cms.gov/resources/variables/prcng_excptn_cd",
            "display" : "Pricing Exception Code"
          } ]
        },
        "code" : {
          "coding" : [ {
            "system" : "https://bluebutton.cms.gov/resources/variables/prcng_excptn_cd",
            "code" : "M",
            "display" : "Medicare is a secondary payer (MSP)"
          } ]
        }
      }, {
        "sequence" : 7,
        "category" : {
          "coding" : [ {
            "system" : "https://bluebutton.cms.gov/resources/codesystem/information",
            "code" : "https://bluebutton.cms.gov/resources/variables/ctstrphc_cvrg_cd",
            "display" : "Catastrophic Coverage Code"
          } ]
        },
        "code" : {
          "coding" : [ {
            "system" : "https://bluebutton.cms.gov/resources/variables/ctstrphc_cvrg_cd",
            "code" : "C",
            "display" : "Above attachment point"
          } ]
        }
      }, {
        "sequence" : 8,
        "category" : {
          "coding" : [ {
            "system" : "https://bluebutton.cms.gov/resources/codesystem/information",
            "code" : "https://bluebutton.cms.gov/resources/variables/rx_orgn_cd",
            "display" : "Prescription Origination Code"
          } ]
        },
        "code" : {
          "coding" : [ {
            "system" : "https://bluebutton.cms.gov/resources/variables/rx_orgn_cd",
            "code" : "3",
            "display" : "Electronic"
          } ]
        }
      }, {
        "sequence" : 9,
        "category" : {
          "coding" : [ {
            "system" : "https://bluebutton.cms.gov/resources/codesystem/information",
            "code" : "https://bluebutton.cms.gov/resources/variables/brnd_gnrc_cd",
            "display" : "Brand-Generic Code Reported by Submitting Plan"
          } ]
        },
        "code" : {
          "coding" : [ {
            "system" : "https://bluebutton.cms.gov/resources/variables/brnd_gnrc_cd",
            "code" : "G",
            "display" : "Generic Null/missing"
          } ]
        }
      }, {
        "sequence" : 10,
        "category" : {
          "coding" : [ {
            "system" : "https://bluebutton.cms.gov/resources/codesystem/information",
            "code" : "https://bluebutton.cms.gov/resources/variables/phrmcy_srvc_type_cd",
            "display" : "Pharmacy service type code"
          } ]
        },
        "code" : {
          "coding" : [ {
            "system" : "https://bluebutton.cms.gov/resources/variables/phrmcy_srvc_type_cd",
            "code" : "01",
            "display" : "Community/retail pharmacy"
          } ]
        }
      }, {
        "sequence" : 11,
        "category" : {
          "coding" : [ {
            "system" : "https://bluebutton.cms.gov/resources/codesystem/information",
            "code" : "https://bluebutton.cms.gov/resources/variables/ptnt_rsdnc_cd",
            "display" : "Patient Residence Code"
          } ]
        },
        "code" : {
          "coding" : [ {
            "system" : "https://bluebutton.cms.gov/resources/variables/ptnt_rsdnc_cd",
            "code" : "02",
            "display" : "Skilled Nursing Facility"
          } ]
        }
      }, {
        "sequence" : 12,
        "category" : {
          "coding" : [ {
            "system" : "https://bluebutton.cms.gov/resources/codesystem/information",
            "code" : "https://bluebutton.cms.gov/resources/variables/submsn_clr_cd",
            "display" : "Submission clarification code"
          } ]
        },
        "code" : {
          "coding" : [ {
            "system" : "https://bluebutton.cms.gov/resources/variables/submsn_clr_cd",
            "code" : "08",
            "display" : "Process compound for approved ingredients"
          } ]
        }
      } ],
      "careTeam" : [ {
        "sequence" : 1,
        "provider" : {
          "identifier" : {
            "system" : "http://hl7.org/fhir/sid/us-npi",
            "value" : "1750384806"
          },
          "display" : "DR. ROBERT BISBEE MD"
        },
        "role" : {
          "coding" : [ {
            "system" : "http://hl7.org/fhir/claimcareteamrole",
            "code" : "primary",
            "display" : "Primary provider"
          } ]
        }
      } ],
      "insurance" : {
        "coverage" : {
          "extension" : [ {
            "url" : "https://bluebutton.cms.gov/resources/variables/plan_cntrct_rec_id",
            "valueIdentifier" : {
              "system" : "https://bluebutton.cms.gov/resources/variables/plan_cntrct_rec_id",
              "value" : "H9999"
            }
          }, {
            "url" : "https://bluebutton.cms.gov/resources/variables/plan_pbp_rec_num",
            "valueIdentifier" : {
              "system" : "https://bluebutton.cms.gov/resources/variables/plan_pbp_rec_num",
              "value" : "020"
            }
          } ],
          "reference" : "Coverage/part-d-567834"
        }
      },
      "item" : [ {
        "sequence" : 1,
        "careTeamLinkId" : [ 1 ],
        "service" : {
          "coding" : [ {
            "system" : "http://hl7.org/fhir/sid/ndc",
            "code" : "500904610",
            "display" : "ACETAMINOPHEN AND CODEINE PHOSPHATE - ACETAMINOPHEN; CODEINE PHOSPHATE"
          } ]
        },
        "servicedDate" : "2015-05-12",
        "quantity" : {
          "extension" : [ {
            "url" : "https://bluebutton.cms.gov/resources/variables/fill_num",
            "valueQuantity" : {
              "value" : 3
            }
          }, {
            "url" : "https://bluebutton.cms.gov/resources/variables/days_suply_num",
            "valueQuantity" : {
              "value" : 30
            }
          } ],
          "value" : 60.0
        },
        "adjudication" : [ {
          "category" : {
            "coding" : [ {
              "system" : "https://bluebutton.cms.gov/resources/codesystem/adjudication",
              "code" : "https://bluebutton.cms.gov/resources/variables/cvrd_d_plan_pd_amt",
              "display" : "Amount paid by Part D plan for the PDE (drug is covered by Part D)"
            } ]
          },
          "reason" : {
            "coding" : [ {
              "system" : "https://bluebutton.cms.gov/resources/variables/drug_cvrg_stus_cd",
              "code" : "C",
              "display" : "Covered"
            } ]
          },
          "amount" : {
            "value" : 126.99,
            "system" : "urn:iso:std:iso:4217",
            "code" : "USD"
          }
        }, {
          "category" : {
            "coding" : [ {
              "system" : "https://bluebutton.cms.gov/resources/codesystem/adjudication",
              "code" : "https://bluebutton.cms.gov/resources/variables/gdc_blw_oopt_amt",
              "display" : "Gross Drug Cost Below Part D Out-of-Pocket Threshold (GDCB)"
            } ]
          },
          "amount" : {
            "value" : 995.34,
            "system" : "urn:iso:std:iso:4217",
            "code" : "USD"
          }
        }, {
          "category" : {
            "coding" : [ {
              "system" : "https://bluebutton.cms.gov/resources/codesystem/adjudication",
              "code" : "https://bluebutton.cms.gov/resources/variables/gdc_abv_oopt_amt",
              "display" : "Gross Drug Cost Above Part D Out-of-Pocket Threshold (GDCA)"
            } ]
          },
          "amount" : {
            "value" : 15.25,
            "system" : "urn:iso:std:iso:4217",
            "code" : "USD"
          }
        }, {
          "category" : {
            "coding" : [ {
              "system" : "https://bluebutton.cms.gov/resources/codesystem/adjudication",
              "code" : "https://bluebutton.cms.gov/resources/variables/ptnt_pay_amt",
              "display" : "Amount Paid by Patient"
            } ]
          },
          "amount" : {
            "value" : 235.85,
            "system" : "urn:iso:std:iso:4217",
            "code" : "USD"
          }
        }, {
          "category" : {
            "coding" : [ {
              "system" : "https://bluebutton.cms.gov/resources/codesystem/adjudication",
              "code" : "https://bluebutton.cms.gov/resources/variables/othr_troop_amt",
              "display" : "Other True Out-of-Pocket (TrOOP) Amount"
            } ]
          },
          "amount" : {
            "value" : 17.3,
            "system" : "urn:iso:std:iso:4217",
            "code" : "USD"
          }
        }, {
          "category" : {
            "coding" : [ {
              "system" : "https://bluebutton.cms.gov/resources/codesystem/adjudication",
              "code" : "https://bluebutton.cms.gov/resources/variables/lics_amt",
              "display" : "Amount paid for the PDE by Part D low income subsidy"
            } ]
          },
          "amount" : {
            "value" : 122.23,
            "system" : "urn:iso:std:iso:4217",
            "code" : "USD"
          }
        }, {
          "category" : {
            "coding" : [ {
              "system" : "https://bluebutton.cms.gov/resources/codesystem/adjudication",
              "code" : "https://bluebutton.cms.gov/resources/variables/plro_amt",
              "display" : "Reduction in patient liability due to payments by other payers (PLRO)"
            } ]
          },
          "amount" : {
            "value" : 42.42,
            "system" : "urn:iso:std:iso:4217",
            "code" : "USD"
          }
        }, {
          "category" : {
            "coding" : [ {
              "system" : "https://bluebutton.cms.gov/resources/codesystem/adjudication",
              "code" : "https://bluebutton.cms.gov/resources/variables/tot_rx_cst_amt",
              "display" : "Total drug cost (Part D)"
            } ]
          },
          "amount" : {
            "value" : 550.0,
            "system" : "urn:iso:std:iso:4217",
            "code" : "USD"
          }
        }, {
          "category" : {
            "coding" : [ {
              "system" : "https://bluebutton.cms.gov/resources/codesystem/adjudication",
              "code" : "https://bluebutton.cms.gov/resources/variables/rptd_gap_dscnt_num",
              "display" : "Gap Discount Amount"
            } ]
          },
          "amount" : {
            "value" : 317.22,
            "system" : "urn:iso:std:iso:4217",
            "code" : "USD"
          }
        } ],
        "detail" : [ {
          "type" : {
            "coding" : [ {
              "system" : "http://hl7.org/fhir/v3/ActCode",
              "code" : "RXDINV",
              "display" : "Rx dispense invoice"
            } ]
          }
        } ]
      } ],
      "payment" : {
        "date" : "2015-05-27"
      }
    }
  }, {
    "resource" : {
      "resourceType" : "ExplanationOfBenefit",
      "id" : "carrier-9991831999",
      "meta" : {
        "lastUpdated" : "IGNORED_FIELD"
      },
      "contained" : [ {
        "resourceType" : "ReferralRequest",
        "id" : "1",
        "status" : "completed",
        "subject" : {
          "reference" : "Patient/567834"
        },
        "requester" : {
          "agent" : {
            "identifier" : {
              "system" : "http://hl7.org/fhir/sid/us-npi",
              "value" : "8765676"
            }
          }
        },
        "recipient" : [ {
          "identifier" : {
            "system" : "http://hl7.org/fhir/sid/us-npi",
            "value" : "8765676"
          }
        } ]
      }, {
        "resourceType" : "Practitioner",
        "id" : "2",
        "identifier" : [ {
          "type" : {
            "coding" : [ {
              "system" : "http://hl7.org/fhir/sid/us-npi",
              "code" : "NPI",
              "display" : "National Provider Identifier"
            } ]
          },
          "value" : "1923124"
        } ]
      }, {
        "resourceType" : "Observation",
        "id" : "3",
        "status" : "unknown",
        "code" : {
          "coding" : [ {
            "system" : "https://bluebutton.cms.gov/resources/variables/line_hct_hgb_type_cd",
            "code" : "R1",
            "display" : "Hemoglobin Test"
          } ]
        },
        "valueQuantity" : {
          "value" : 42.0
        }
      } ],
      "extension" : [ {
        "url" : "https://bluebutton.cms.gov/resources/variables/prpayamt",
        "valueMoney" : {
          "value" : 0.0,
          "system" : "urn:iso:std:iso:4217",
          "code" : "USD"
        }
      }, {
        "url" : "https://bluebutton.cms.gov/resources/variables/carr_num",
        "valueIdentifier" : {
          "system" : "https://bluebutton.cms.gov/resources/variables/carr_num",
          "value" : "61026"
        }
      }, {
        "url" : "https://bluebutton.cms.gov/resources/variables/carr_clm_cntl_num",
        "valueIdentifier" : {
          "system" : "https://bluebutton.cms.gov/resources/variables/carr_clm_cntl_num",
          "value" : "74655592568216"
        }
      }, {
        "url" : "https://bluebutton.cms.gov/resources/variables/carr_clm_pmt_dnl_cd",
        "valueCoding" : {
          "system" : "https://bluebutton.cms.gov/resources/variables/carr_clm_pmt_dnl_cd",
          "code" : "1",
          "display" : "Physician/supplier"
        }
      }, {
        "url" : "https://bluebutton.cms.gov/resources/variables/asgmntcd",
        "valueCoding" : {
          "system" : "https://bluebutton.cms.gov/resources/variables/asgmntcd",
          "code" : "A",
          "display" : "Assigned claim"
        }
      }, {
        "url" : "https://bluebutton.cms.gov/resources/variables/clm_clncl_tril_num",
        "valueIdentifier" : {
          "system" : "https://bluebutton.cms.gov/resources/variables/clm_clncl_tril_num",
          "value" : "0"
        }
      }, {
        "url" : "https://bluebutton.cms.gov/resources/variables/carr_clm_cash_ddctbl_apld_amt",
        "valueMoney" : {
          "value" : 777.0,
          "system" : "urn:iso:std:iso:4217",
          "code" : "USD"
        }
      }, {
        "url" : "https://bluebutton.cms.gov/resources/variables/nch_clm_prvdr_pmt_amt",
        "valueMoney" : {
          "value" : 123.45,
          "system" : "urn:iso:std:iso:4217",
          "code" : "USD"
        }
      }, {
        "url" : "https://bluebutton.cms.gov/resources/variables/nch_clm_bene_pmt_amt",
        "valueMoney" : {
          "value" : 888.0,
          "system" : "urn:iso:std:iso:4217",
          "code" : "USD"
        }
      }, {
        "url" : "https://bluebutton.cms.gov/resources/variables/nch_carr_clm_sbmtd_chrg_amt",
        "valueMoney" : {
          "value" : 245.04,
          "system" : "urn:iso:std:iso:4217",
          "code" : "USD"
        }
      }, {
        "url" : "https://bluebutton.cms.gov/resources/variables/nch_carr_clm_alowd_amt",
        "valueMoney" : {
          "value" : 166.23,
          "system" : "urn:iso:std:iso:4217",
          "code" : "USD"
        }
      } ],
      "identifier" : [ {
        "system" : "https://bluebutton.cms.gov/resources/variables/clm_id",
        "value" : "9991831999"
      }, {
        "system" : "https://bluebutton.cms.gov/resources/identifier/claim-group",
        "value" : "900"
      } ],
      "status" : "active",
      "type" : {
        "coding" : [ {
          "system" : "https://bluebutton.cms.gov/resources/variables/nch_clm_type_cd",
          "code" : "71",
          "display" : "Local carrier non-durable medical equipment, prosthetics, orthotics, and supplies (DMEPOS) claim"
        }, {
          "system" : "https://bluebutton.cms.gov/resources/codesystem/eob-type",
          "code" : "CARRIER"
        }, {
          "system" : "http://hl7.org/fhir/ex-claimtype",
          "code" : "professional",
          "display" : "Professional"
        }, {
          "system" : "https://bluebutton.cms.gov/resources/variables/nch_near_line_rec_ident_cd",
          "code" : "O",
          "display" : "Part B physician/supplier claim record (processed by local carriers; can include DMEPOS services)"
        } ]
      },
      "patient" : {
        "reference" : "Patient/567834"
      },
      "billablePeriod" : {
        "start" : "1999-10-27",
        "end" : "1999-10-27"
      },
      "referral" : {
        "reference" : "#1"
      },
      "disposition" : "1",
      "information" : [ {
        "sequence" : 1,
        "category" : {
          "coding" : [ {
            "system" : "https://bluebutton.cms.gov/resources/codesystem/information",
            "code" : "https://bluebutton.cms.gov/resources/variables/nch_wkly_proc_dt",
            "display" : "NCH Weekly Claim Processing Date"
          } ]
        },
        "timingDate" : "1999-11-06"
      } ],
      "careTeam" : [ {
        "extension" : [ {
          "url" : "https://bluebutton.cms.gov/resources/variables/carr_line_prvdr_type_cd",
          "valueCoding" : {
            "system" : "https://bluebutton.cms.gov/resources/variables/carr_line_prvdr_type_cd",
            "code" : "0"
          }
        }, {
          "url" : "https://bluebutton.cms.gov/resources/variables/prtcptng_ind_cd",
          "valueCoding" : {
            "system" : "https://bluebutton.cms.gov/resources/variables/prtcptng_ind_cd",
            "code" : "1",
            "display" : "Participating"
          }
        } ],
        "sequence" : 1,
        "provider" : {
          "reference" : "#2"
        },
        "responsible" : true,
        "role" : {
          "coding" : [ {
            "system" : "http://hl7.org/fhir/claimcareteamrole",
            "code" : "primary",
            "display" : "Primary provider"
          } ]
        },
        "qualification" : {
          "coding" : [ {
            "system" : "https://bluebutton.cms.gov/resources/variables/prvdr_spclty",
            "code" : "41",
            "display" : "Optometrist"
          } ]
        }
      }, {
        "extension" : [ {
          "url" : "https://bluebutton.cms.gov/resources/variables/carr_line_prvdr_type_cd",
          "valueCoding" : {
            "system" : "https://bluebutton.cms.gov/resources/variables/carr_line_prvdr_type_cd",
            "code" : "0"
          }
        }, {
          "url" : "https://bluebutton.cms.gov/resources/variables/prtcptng_ind_cd",
          "valueCoding" : {
            "system" : "https://bluebutton.cms.gov/resources/variables/prtcptng_ind_cd",
            "code" : "1",
            "display" : "Participating"
          }
        }, {
          "url" : "http://hl7.org/fhir/sid/us-npi",
          "valueCoding" : {
            "system" : "http://hl7.org/fhir/sid/us-npi",
            "code" : "1497758544",
            "display" : "CUMBERLAND COUNTY HOSPITAL SYSTEM, INC"
          }
        } ],
        "sequence" : 2,
        "provider" : {
          "identifier" : {
            "system" : "http://hl7.org/fhir/sid/us-npi",
            "value" : "1923124"
          }
        },
        "responsible" : true,
        "role" : {
          "coding" : [ {
            "system" : "http://hl7.org/fhir/claimcareteamrole",
            "code" : "primary",
            "display" : "Primary provider"
          } ]
        },
        "qualification" : {
          "coding" : [ {
            "system" : "https://bluebutton.cms.gov/resources/variables/prvdr_spclty",
            "code" : "41",
            "display" : "Optometrist"
          } ]
        }
      } ],
      "diagnosis" : [ {
        "sequence" : 1,
        "diagnosisCodeableConcept" : {
          "coding" : [ {
            "system" : "http://hl7.org/fhir/sid/icd-10",
            "code" : "H5555"
          } ]
        },
        "type" : [ {
          "coding" : [ {
            "system" : "https://bluebutton.cms.gov/resources/codesystem/diagnosis-type",
            "code" : "principal",
            "display" : "The single medical diagnosis that is most relevant to the patient's chief complaint or need for treatment."
          } ]
        } ]
      }, {
        "sequence" : 2,
        "diagnosisCodeableConcept" : {
          "coding" : [ {
            "system" : "http://hl7.org/fhir/sid/icd-10",
            "code" : "H8888"
          } ]
        }
      }, {
        "sequence" : 3,
        "diagnosisCodeableConcept" : {
          "coding" : [ {
            "system" : "http://hl7.org/fhir/sid/icd-10",
            "code" : "H66666"
          } ]
        }
      }, {
        "sequence" : 4,
        "diagnosisCodeableConcept" : {
          "coding" : [ {
            "system" : "http://hl7.org/fhir/sid/icd-10",
            "code" : "H77777"
          } ]
        }
      }, {
        "sequence" : 5,
        "diagnosisCodeableConcept" : {
          "coding" : [ {
            "system" : "http://hl7.org/fhir/sid/icd-10",
            "code" : "H12345"
          } ]
        }
      } ],
      "insurance" : {
        "coverage" : {
          "reference" : "Coverage/part-b-567834"
        }
      },
      "item" : [ {
        "extension" : [ {
          "url" : "https://bluebutton.cms.gov/resources/variables/carr_line_mtus_cd",
          "valueCoding" : {
            "system" : "https://bluebutton.cms.gov/resources/variables/carr_line_mtus_cd",
            "code" : "3",
            "display" : "Services"
          }
        }, {
          "url" : "https://bluebutton.cms.gov/resources/variables/carr_line_mtus_cnt",
          "valueQuantity" : {
            "value" : 1
          }
        }, {
          "url" : "https://bluebutton.cms.gov/resources/variables/betos_cd",
          "valueCoding" : {
            "system" : "https://bluebutton.cms.gov/resources/variables/betos_cd",
            "code" : "T2D",
            "display" : "Other tests - other"
          }
        }, {
          "url" : "https://bluebutton.cms.gov/resources/variables/line_bene_prmry_pyr_cd",
          "valueCoding" : {
            "system" : "https://bluebutton.cms.gov/resources/variables/line_bene_prmry_pyr_cd",
            "code" : "E",
            "display" : "Workers' compensation"
          }
        }, {
          "url" : "https://bluebutton.cms.gov/resources/variables/line_service_deductible",
          "valueCoding" : {
            "system" : "https://bluebutton.cms.gov/resources/variables/line_service_deductible",
            "code" : "0",
            "display" : "Service Subject to Deductible"
          }
        }, {
          "url" : "https://bluebutton.cms.gov/resources/variables/line_hct_hgb_rslt_num",
          "valueReference" : {
            "reference" : "#3"
          }
        }, {
          "url" : "http://hl7.org/fhir/sid/ndc",
          "valueCoding" : {
            "system" : "http://hl7.org/fhir/sid/ndc",
            "code" : "49035044700"
          }
        } ],
        "sequence" : 6,
        "careTeamLinkId" : [ 1, 2 ],
        "diagnosisLinkId" : [ 5 ],
        "category" : {
          "coding" : [ {
            "system" : "https://bluebutton.cms.gov/resources/variables/line_cms_type_srvc_cd",
            "code" : "1",
            "display" : "Medical care"
          } ]
        },
        "service" : {
          "coding" : [ {
            "system" : "https://bluebutton.cms.gov/resources/codesystem/hcpcs",
            "version" : "5",
            "code" : "92999"
          } ]
        },
        "modifier" : [ {
          "coding" : [ {
            "system" : "https://bluebutton.cms.gov/resources/codesystem/hcpcs",
            "version" : "5",
            "code" : "LT"
          } ]
        } ],
        "servicedPeriod" : {
          "start" : "1999-10-27",
          "end" : "1999-10-27"
        },
        "locationCodeableConcept" : {
          "extension" : [ {
            "url" : "https://bluebutton.cms.gov/resources/variables/prvdr_state_cd",
            "valueCoding" : {
              "system" : "https://bluebutton.cms.gov/resources/variables/prvdr_state_cd",
              "code" : "IL"
            }
          }, {
            "url" : "https://bluebutton.cms.gov/resources/variables/prvdr_zip",
            "valueCoding" : {
              "system" : "https://bluebutton.cms.gov/resources/variables/prvdr_zip",
              "code" : "555558202"
            }
          }, {
            "url" : "https://bluebutton.cms.gov/resources/variables/carr_line_prcng_lclty_cd",
            "valueCoding" : {
              "system" : "https://bluebutton.cms.gov/resources/variables/carr_line_prcng_lclty_cd",
              "code" : "15",
              "display" : "CONNECTICUT"
            }
          }, {
            "url" : "https://bluebutton.cms.gov/resources/variables/carr_line_clia_lab_num",
            "valueIdentifier" : {
              "system" : "https://bluebutton.cms.gov/resources/variables/carr_line_clia_lab_num",
              "value" : "BB889999AA"
            }
          } ],
          "coding" : [ {
            "system" : "https://bluebutton.cms.gov/resources/variables/line_place_of_srvc_cd",
            "code" : "11",
            "display" : "Office. Location, other than a hospital, skilled nursing facility (SNF), military treatment facility, community health center, State or local public health clinic, or intermediate care facility (ICF), where the health professional routinely provides health examinations, diagnosis, and treatment of illness or injury on an ambulatory basis."
          } ]
        },
        "quantity" : {
          "value" : 1
        },
        "adjudication" : [ {
          "category" : {
            "coding" : [ {
              "system" : "https://bluebutton.cms.gov/resources/codesystem/adjudication",
              "code" : "https://bluebutton.cms.gov/resources/variables/carr_line_rdcd_pmt_phys_astn_c",
              "display" : "Carrier Line Reduced Payment Physician Assistant Code"
            } ]
          },
          "reason" : {
            "coding" : [ {
              "system" : "https://bluebutton.cms.gov/resources/variables/carr_line_rdcd_pmt_phys_astn_c",
              "code" : "0",
              "display" : "N/A"
            } ]
          }
        }, {
          "extension" : [ {
            "url" : "https://bluebutton.cms.gov/resources/variables/line_pmt_80_100_cd",
            "valueCoding" : {
              "system" : "https://bluebutton.cms.gov/resources/variables/line_pmt_80_100_cd",
              "code" : "0",
              "display" : "80%"
            }
          } ],
          "category" : {
            "coding" : [ {
              "system" : "https://bluebutton.cms.gov/resources/codesystem/adjudication",
              "code" : "https://bluebutton.cms.gov/resources/variables/line_nch_pmt_amt",
              "display" : "Line NCH Medicare Payment Amount"
            } ]
          },
          "amount" : {
            "value" : 37.5,
            "system" : "urn:iso:std:iso:4217",
            "code" : "USD"
          }
        }, {
          "category" : {
            "coding" : [ {
              "system" : "https://bluebutton.cms.gov/resources/codesystem/adjudication",
              "code" : "https://bluebutton.cms.gov/resources/variables/line_bene_pmt_amt",
              "display" : "Line Payment Amount to Beneficiary"
            } ]
          },
          "amount" : {
            "value" : 0.0,
            "system" : "urn:iso:std:iso:4217",
            "code" : "USD"
          }
        }, {
          "category" : {
            "coding" : [ {
              "system" : "https://bluebutton.cms.gov/resources/codesystem/adjudication",
              "code" : "https://bluebutton.cms.gov/resources/variables/line_prvdr_pmt_amt",
              "display" : "Line Provider Payment Amount"
            } ]
          },
          "amount" : {
            "value" : 37.5,
            "system" : "urn:iso:std:iso:4217",
            "code" : "USD"
          }
        }, {
          "category" : {
            "coding" : [ {
              "system" : "https://bluebutton.cms.gov/resources/codesystem/adjudication",
              "code" : "https://bluebutton.cms.gov/resources/variables/line_bene_ptb_ddctbl_amt",
              "display" : "Line Beneficiary Part B Deductible Amount"
            } ]
          },
          "amount" : {
            "value" : 0.0,
            "system" : "urn:iso:std:iso:4217",
            "code" : "USD"
          }
        }, {
          "category" : {
            "coding" : [ {
              "system" : "https://bluebutton.cms.gov/resources/codesystem/adjudication",
              "code" : "https://bluebutton.cms.gov/resources/variables/line_bene_prmry_pyr_pd_amt",
              "display" : "Line Primary Payer (if not Medicare) Paid Amount"
            } ]
          },
          "amount" : {
            "value" : 0.0,
            "system" : "urn:iso:std:iso:4217",
            "code" : "USD"
          }
        }, {
          "category" : {
            "coding" : [ {
              "system" : "https://bluebutton.cms.gov/resources/codesystem/adjudication",
              "code" : "https://bluebutton.cms.gov/resources/variables/line_coinsrnc_amt",
              "display" : "Line Beneficiary Coinsurance Amount"
            } ]
          },
          "amount" : {
            "value" : 9.57,
            "system" : "urn:iso:std:iso:4217",
            "code" : "USD"
          }
        }, {
          "category" : {
            "coding" : [ {
              "system" : "https://bluebutton.cms.gov/resources/codesystem/adjudication",
              "code" : "https://bluebutton.cms.gov/resources/variables/line_sbmtd_chrg_amt",
              "display" : "Line Submitted Charge Amount"
            } ]
          },
          "amount" : {
            "value" : 75.0,
            "system" : "urn:iso:std:iso:4217",
            "code" : "USD"
          }
        }, {
          "category" : {
            "coding" : [ {
              "system" : "https://bluebutton.cms.gov/resources/codesystem/adjudication",
              "code" : "https://bluebutton.cms.gov/resources/variables/line_alowd_chrg_amt",
              "display" : "Line Allowed Charge Amount"
            } ]
          },
          "amount" : {
            "value" : 47.84,
            "system" : "urn:iso:std:iso:4217",
            "code" : "USD"
          }
        }, {
          "category" : {
            "coding" : [ {
              "system" : "https://bluebutton.cms.gov/resources/codesystem/adjudication",
              "code" : "https://bluebutton.cms.gov/resources/variables/line_prcsg_ind_cd",
              "display" : "Line Processing Indicator Code"
            } ]
          },
          "reason" : {
            "coding" : [ {
              "system" : "https://bluebutton.cms.gov/resources/variables/line_prcsg_ind_cd",
              "code" : "A",
              "display" : "Allowed"
            } ]
          }
        } ]
      } ],
      "payment" : {
        "amount" : {
          "value" : 199.99,
          "system" : "urn:iso:std:iso:4217",
          "code" : "USD"
        }
      }
    }
  }, {
    "resource" : {
      "resourceType" : "ExplanationOfBenefit",
      "id" : "hospice-9992223422",
      "meta" : {
        "lastUpdated" : "IGNORED_FIELD"
      },
      "extension" : [ {
        "url" : "https://bluebutton.cms.gov/resources/variables/clm_mdcr_non_pmt_rsn_cd",
        "valueCoding" : {
          "system" : "https://bluebutton.cms.gov/resources/variables/clm_mdcr_non_pmt_rsn_cd",
          "code" : "P",
          "display" : "Payment requested"
        }
      }, {
        "url" : "https://bluebutton.cms.gov/resources/variables/prpayamt",
        "valueMoney" : {
          "value" : 0.0,
          "system" : "urn:iso:std:iso:4217",
          "code" : "USD"
        }
      }, {
        "url" : "https://bluebutton.cms.gov/resources/variables/fi_num",
        "valueIdentifier" : {
          "system" : "https://bluebutton.cms.gov/resources/variables/fi_num",
          "value" : "6666"
        }
      }, {
        "url" : "https://bluebutton.cms.gov/resources/variables/fi_doc_clm_cntl_num",
        "valueIdentifier" : {
          "system" : "https://bluebutton.cms.gov/resources/variables/fi_doc_clm_cntl_num",
          "value" : "2718813985998"
        }
      }, {
        "url" : "https://bluebutton.cms.gov/resources/variables/fi_orig_clm_cntl_num",
        "valueIdentifier" : {
          "system" : "https://bluebutton.cms.gov/resources/variables/fi_orig_clm_cntl_num",
          "value" : "38875439343923937"
        }
      } ],
      "identifier" : [ {
        "system" : "https://bluebutton.cms.gov/resources/variables/clm_id",
        "value" : "9992223422"
      }, {
        "system" : "https://bluebutton.cms.gov/resources/identifier/claim-group",
        "value" : "900"
      } ],
      "status" : "active",
      "type" : {
        "coding" : [ {
          "system" : "https://bluebutton.cms.gov/resources/variables/nch_clm_type_cd",
          "code" : "50",
          "display" : "Hospice claim"
        }, {
          "system" : "https://bluebutton.cms.gov/resources/codesystem/eob-type",
          "code" : "HOSPICE"
        }, {
          "system" : "http://hl7.org/fhir/ex-claimtype",
          "code" : "institutional",
          "display" : "Institutional"
        }, {
          "system" : "https://bluebutton.cms.gov/resources/variables/nch_near_line_rec_ident_cd",
          "code" : "V",
          "display" : "Part A institutional claim record (inpatient [IP], skilled nursing facility [SNF], hospice [HOS], or home health agency [HHA])"
        }, {
          "system" : "https://bluebutton.cms.gov/resources/variables/clm_srvc_clsfctn_type_cd",
          "code" : "1"
        } ]
      },
      "patient" : {
        "reference" : "Patient/567834"
      },
      "billablePeriod" : {
        "start" : "2014-01-01",
        "end" : "2014-01-30"
      },
      "provider" : {
        "identifier" : {
          "system" : "https://bluebutton.cms.gov/resources/variables/prvdr_num",
          "value" : "12345"
        }
      },
      "organization" : {
        "identifier" : {
          "system" : "http://hl7.org/fhir/sid/us-npi",
          "value" : "999999999"
        }
      },
      "facility" : {
        "extension" : [ {
          "url" : "https://bluebutton.cms.gov/resources/variables/clm_fac_type_cd",
          "valueCoding" : {
            "system" : "https://bluebutton.cms.gov/resources/variables/clm_fac_type_cd",
            "code" : "8",
            "display" : "Ambulatory Surgery Center (ASC) or other special facility (e.g. hospice)"
          }
        } ],
        "identifier" : {
          "system" : "http://hl7.org/fhir/sid/us-npi",
          "value" : "999999999"
        }
      },
      "information" : [ {
        "sequence" : 1,
        "category" : {
          "coding" : [ {
            "system" : "https://bluebutton.cms.gov/resources/codesystem/information",
            "code" : "https://bluebutton.cms.gov/resources/variables/nch_wkly_proc_dt",
            "display" : "NCH Weekly Claim Processing Date"
          } ]
        },
        "timingDate" : "2014-10-10"
      }, {
        "sequence" : 2,
        "category" : {
          "coding" : [ {
            "system" : "https://bluebutton.cms.gov/resources/codesystem/information",
            "code" : "https://bluebutton.cms.gov/resources/variables/nch_ptnt_stus_ind_cd",
            "display" : "NCH Patient Status Indicator Code"
          } ]
        },
        "code" : {
          "coding" : [ {
            "system" : "https://bluebutton.cms.gov/resources/variables/nch_ptnt_stus_ind_cd",
            "code" : "C",
            "display" : "Still a patient"
          } ]
        }
      }, {
        "sequence" : 3,
        "category" : {
          "coding" : [ {
            "system" : "https://bluebutton.cms.gov/resources/codesystem/information",
            "code" : "https://bluebutton.cms.gov/resources/variables/clm_freq_cd",
            "display" : "Claim Frequency Code"
          } ]
        },
        "code" : {
          "coding" : [ {
            "system" : "https://bluebutton.cms.gov/resources/variables/clm_freq_cd",
            "code" : "1",
            "display" : "Admit thru discharge claim"
          } ]
        }
      }, {
        "sequence" : 4,
        "category" : {
          "coding" : [ {
            "system" : "https://bluebutton.cms.gov/resources/codesystem/information",
            "code" : "https://bluebutton.cms.gov/resources/variables/ptnt_dschrg_stus_cd",
            "display" : "Patient Discharge Status Code"
          } ]
        },
        "code" : {
          "coding" : [ {
            "system" : "https://bluebutton.cms.gov/resources/variables/ptnt_dschrg_stus_cd",
            "code" : "30",
            "display" : "Still patient."
          } ]
        }
      }, {
        "sequence" : 5,
        "category" : {
          "coding" : [ {
            "system" : "https://bluebutton.cms.gov/resources/codesystem/information",
            "code" : "https://bluebutton.cms.gov/resources/variables/nch_prmry_pyr_cd",
            "display" : "NCH Primary Payer Code (if not Medicare)"
          } ]
        },
        "code" : {
          "coding" : [ {
            "system" : "https://bluebutton.cms.gov/resources/variables/nch_prmry_pyr_cd",
            "code" : "A",
            "display" : "Employer group health plan (EGHP) insurance for an aged beneficiary"
          } ]
        }
      } ],
      "careTeam" : [ {
        "sequence" : 1,
        "provider" : {
          "identifier" : {
            "system" : "http://hl7.org/fhir/sid/us-npi",
            "value" : "8888888888"
          }
        },
        "role" : {
          "coding" : [ {
            "system" : "http://hl7.org/fhir/claimcareteamrole",
            "code" : "primary",
            "display" : "Primary provider"
          } ]
        }
      }, {
        "sequence" : 2,
        "provider" : {
          "identifier" : {
            "system" : "http://hl7.org/fhir/sid/us-npi",
            "value" : "345345345"
          }
        },
        "role" : {
          "coding" : [ {
            "system" : "http://hl7.org/fhir/claimcareteamrole",
            "code" : "primary",
            "display" : "Primary provider"
          } ]
        }
      } ],
      "diagnosis" : [ {
        "sequence" : 1,
        "diagnosisCodeableConcept" : {
          "coding" : [ {
            "system" : "http://hl7.org/fhir/sid/icd-9-cm",
            "code" : "R5555"
          } ]
        },
        "type" : [ {
          "coding" : [ {
            "system" : "https://bluebutton.cms.gov/resources/codesystem/diagnosis-type",
            "code" : "principal",
            "display" : "The single medical diagnosis that is most relevant to the patient's chief complaint or need for treatment."
          } ]
        } ]
      }, {
        "sequence" : 2,
        "diagnosisCodeableConcept" : {
          "coding" : [ {
            "system" : "http://hl7.org/fhir/sid/icd-10",
            "code" : "R6666"
          } ]
        }
      }, {
        "sequence" : 3,
        "diagnosisCodeableConcept" : {
          "coding" : [ {
            "system" : "http://hl7.org/fhir/sid/icd-10",
            "code" : "R2222"
          } ]
        },
        "type" : [ {
          "coding" : [ {
            "system" : "https://bluebutton.cms.gov/resources/codesystem/diagnosis-type",
            "code" : "external-first",
            "display" : "The code used to identify the 1st external cause of injury, poisoning, or other adverse effect."
          } ]
        } ]
      }, {
        "sequence" : 4,
        "diagnosisCodeableConcept" : {
          "coding" : [ {
            "system" : "http://hl7.org/fhir/sid/icd-10",
            "code" : "R3333"
          } ]
        },
        "type" : [ {
          "coding" : [ {
            "system" : "https://bluebutton.cms.gov/resources/codesystem/diagnosis-type",
            "code" : "external",
            "display" : "A code used to identify an external cause of injury, poisoning, or other adverse effect."
          } ]
        } ]
      } ],
      "insurance" : {
        "coverage" : {
          "reference" : "Coverage/part-a-567834"
        }
      },
      "hospitalization" : {
        "extension" : [ {
          "url" : "https://bluebutton.cms.gov/resources/variables/bene_hospc_prd_cnt",
          "valueQuantity" : {
            "value" : 2
          }
        } ],
        "start" : "2014-07-06",
        "end" : "2015-06-29"
      },
      "item" : [ {
        "extension" : [ {
          "url" : "https://bluebutton.cms.gov/resources/variables/rev_cntr_ndc_qty",
          "valueQuantity" : {
            "value" : 5454,
            "system" : "https://bluebutton.cms.gov/resources/variables/rev_cntr_ndc_qty_qlfr_cd",
            "code" : "B"
          }
        } ],
        "sequence" : 1,
        "careTeamLinkId" : [ 2 ],
        "revenue" : {
          "extension" : [ {
            "url" : "https://bluebutton.cms.gov/resources/variables/rev_cntr_ddctbl_coinsrnc_cd",
            "valueCoding" : {
              "system" : "https://bluebutton.cms.gov/resources/variables/rev_cntr_ddctbl_coinsrnc_cd",
              "code" : "0",
              "display" : "Charges are subject to deductible and coinsurance"
            }
          } ],
          "coding" : [ {
            "system" : "https://bluebutton.cms.gov/resources/variables/rev_cntr",
            "code" : "651"
          } ]
        },
        "service" : {
          "coding" : [ {
            "system" : "https://bluebutton.cms.gov/resources/codesystem/hcpcs",
            "code" : "A5C"
          } ]
        },
        "modifier" : [ {
          "coding" : [ {
            "system" : "https://bluebutton.cms.gov/resources/codesystem/hcpcs",
            "code" : "Q9999"
          } ]
        } ],
        "servicedDate" : "2014-09-01",
        "locationAddress" : {
          "state" : "AZ"
        },
        "quantity" : {
          "value" : 0
        },
        "adjudication" : [ {
          "category" : {
            "coding" : [ {
              "system" : "https://bluebutton.cms.gov/resources/codesystem/adjudication",
              "code" : "https://bluebutton.cms.gov/resources/variables/rev_cntr_prvdr_pmt_amt",
              "display" : "Revenue Center (Medicare) Provider Payment Amount"
            } ]
          },
          "amount" : {
            "value" : 29.0,
            "system" : "urn:iso:std:iso:4217",
            "code" : "USD"
          }
        }, {
          "category" : {
            "coding" : [ {
              "system" : "https://bluebutton.cms.gov/resources/codesystem/adjudication",
              "code" : "https://bluebutton.cms.gov/resources/variables/rev_cntr_bene_pmt_amt",
              "display" : "Revenue Center Payment Amount to Beneficiary"
            } ]
          },
          "amount" : {
            "value" : 28.0,
            "system" : "urn:iso:std:iso:4217",
            "code" : "USD"
          }
        }, {
          "category" : {
            "coding" : [ {
              "system" : "https://bluebutton.cms.gov/resources/codesystem/adjudication",
              "code" : "https://bluebutton.cms.gov/resources/variables/rev_cntr_rate_amt",
              "display" : "Revenue Center Rate Amount"
            } ]
          },
          "amount" : {
            "value" : 0.0,
            "system" : "urn:iso:std:iso:4217",
            "code" : "USD"
          }
        }, {
          "category" : {
            "coding" : [ {
              "system" : "https://bluebutton.cms.gov/resources/codesystem/adjudication",
              "code" : "https://bluebutton.cms.gov/resources/variables/rev_cntr_tot_chrg_amt",
              "display" : "Revenue Center Total Charge Amount"
            } ]
          },
          "amount" : {
            "value" : 2555.0,
            "system" : "urn:iso:std:iso:4217",
            "code" : "USD"
          }
        }, {
          "category" : {
            "coding" : [ {
              "system" : "https://bluebutton.cms.gov/resources/codesystem/adjudication",
              "code" : "https://bluebutton.cms.gov/resources/variables/rev_cntr_ncvrd_chrg_amt",
              "display" : "Revenue Center Non-Covered Charge Amount"
            } ]
          },
          "amount" : {
            "value" : 300.0,
            "system" : "urn:iso:std:iso:4217",
            "code" : "USD"
          }
        }, {
          "category" : {
            "coding" : [ {
              "system" : "https://bluebutton.cms.gov/resources/codesystem/adjudication",
              "code" : "https://bluebutton.cms.gov/resources/variables/rev_cntr_pmt_amt_amt",
              "display" : "Revenue Center (Medicare) Payment Amount"
            } ]
          },
          "amount" : {
            "value" : 26.0,
            "system" : "urn:iso:std:iso:4217",
            "code" : "USD"
          }
        } ]
      } ],
      "totalCost" : {
        "value" : 199.99,
        "system" : "urn:iso:std:iso:4217",
        "code" : "USD"
      },
      "payment" : {
        "amount" : {
          "value" : 130.32,
          "system" : "urn:iso:std:iso:4217",
          "code" : "USD"
        }
      },
      "benefitBalance" : [ {
        "category" : {
          "coding" : [ {
            "system" : "http://hl7.org/fhir/benefit-category",
            "code" : "medical",
            "display" : "Medical Health Coverage"
          } ]
        },
        "financial" : [ {
          "type" : {
            "coding" : [ {
              "system" : "https://bluebutton.cms.gov/resources/codesystem/benefit-balance",
              "code" : "https://bluebutton.cms.gov/resources/variables/clm_utlztn_day_cnt",
              "display" : "Claim Medicare Utilization Day Count"
            } ]
          },
          "usedUnsignedInt" : 30
        } ]
      } ]
    }
  } ]
}