{
  "resourceType" : "Bundle",
  "id" : "IGNORED_FIELD",
  "meta" : {
    "lastUpdated" : "IGNORED_FIELD"
  },
  "type" : "searchset",
  "total" : 8,
  "link" : [ {
    "relation" : "first",
    "url" : "https://localhost:IGNORED_FIELD/v2/fhir/ExplanationOfBenefit?_format=json&startIndex=0&_count=8&patient=Patient%2F567834"
  }, {
    "relation" : "last",
    "url" : "https://localhost:IGNORED_FIELD/v2/fhir/ExplanationOfBenefit?_format=json&startIndex=0&_count=8&patient=Patient%2F567834"
  }, {
    "relation" : "self",
    "url" : "https://localhost:IGNORED_FIELD/v2/fhir/ExplanationOfBenefit?_count=8&_format=json&patient=Patient%2F567834"
  } ],
  "entry" : [ {
    "resource" : {
      "resourceType" : "ExplanationOfBenefit",
      "id" : "outpatient-1234567890",
      "meta" : {
        "lastUpdated" : "IGNORED_FIELD",
        "profile" : [ "http://hl7.org/fhir/us/carin-bb/StructureDefinition/C4BB-ExplanationOfBenefit-Outpatient-Institutional" ]
      },
      "contained" : [ {
        "resourceType" : "Organization",
        "id" : "provider-org",
        "meta" : {
          "profile" : [ "http://hl7.org/fhir/us/carin-bb/StructureDefinition/C4BB-Organization" ]
        },
        "identifier" : [ {
          "type" : {
            "coding" : [ {
              "system" : "http://terminology.hl7.org/CodeSystem/v2-0203",
              "code" : "PRN"
            } ]
          },
          "value" : "999999"
        }, {
          "type" : {
            "coding" : [ {
              "system" : "http://hl7.org/fhir/us/carin-bb/CodeSystem/C4BBIdentifierType",
              "code" : "npi"
            } ]
          },
          "system" : "http://hl7.org/fhir/sid/us-npi",
          "value" : "1497758544"
        } ],
        "active" : true
      } ],
      "extension" : [ {
        "url" : "https://bluebutton.cms.gov/resources/variables/nch_near_line_rec_ident_cd",
        "valueCoding" : {
          "system" : "https://bluebutton.cms.gov/resources/variables/nch_near_line_rec_ident_cd",
          "code" : "W",
          "display" : "Part B institutional claim record (outpatient [HOP], HHA)"
        }
      }, {
        "url" : "https://bluebutton.cms.gov/resources/variables/clm_mdcr_non_pmt_rsn_cd",
        "valueCoding" : {
          "system" : "https://bluebutton.cms.gov/resources/variables/clm_mdcr_non_pmt_rsn_cd",
          "code" : "A",
          "display" : "Covered worker's compensation (Obsolete)"
        }
      }, {
        "url" : "https://bluebutton.cms.gov/resources/variables/clm_srvc_clsfctn_type_cd",
        "valueCoding" : {
          "system" : "https://bluebutton.cms.gov/resources/variables/clm_srvc_clsfctn_type_cd",
          "code" : "3"
        }
      } ],
      "identifier" : [ {
        "type" : {
          "coding" : [ {
            "system" : "http://hl7.org/fhir/us/carin-bb/CodeSystem/C4BBIdentifierType",
            "code" : "uc",
            "display" : "Unique Claim ID"
          } ]
        },
        "system" : "https://bluebutton.cms.gov/resources/variables/clm_id",
        "value" : "1234567890"
      }, {
        "type" : {
          "coding" : [ {
            "system" : "http://hl7.org/fhir/us/carin-bb/CodeSystem/C4BBIdentifierType",
            "code" : "uc",
            "display" : "Unique Claim ID"
          } ]
        },
        "system" : "https://bluebutton.cms.gov/resources/identifier/claim-group",
        "value" : "900"
      } ],
      "status" : "active",
      "type" : {
        "coding" : [ {
          "system" : "https://bluebutton.cms.gov/resources/variables/nch_clm_type_cd",
          "code" : "40",
          "display" : "Hospital Outpatient claim"
        }, {
          "system" : "https://bluebutton.cms.gov/resources/codesystem/eob-type",
          "code" : "OUTPATIENT"
        }, {
          "system" : "http://terminology.hl7.org/CodeSystem/claim-type",
          "code" : "institutional",
          "display" : "Institutional"
        } ]
      },
      "use" : "claim",
      "patient" : {
        "reference" : "Patient/567834"
      },
      "billablePeriod" : {
        "extension" : [ {
          "url" : "https://bluebutton.cms.gov/resources/variables/claim_query_cd",
          "valueCoding" : {
            "system" : "https://bluebutton.cms.gov/resources/variables/claim_query_cd",
            "code" : "3",
            "display" : "Final bill"
          }
        } ],
        "start" : "2011-01-24",
        "end" : "2011-01-24"
      },
      "created" : "IGNORED_FIELD",
      "insurer" : {
        "identifier" : {
          "value" : "CMS"
        }
      },
      "provider" : {
        "reference" : "#provider-org"
      },
      "facility" : {
        "extension" : [ {
          "url" : "https://bluebutton.cms.gov/resources/variables/clm_fac_type_cd",
          "valueCoding" : {
            "system" : "https://bluebutton.cms.gov/resources/variables/clm_fac_type_cd",
            "code" : "1",
            "display" : "Hospital"
          }
        } ]
      },
      "outcome" : "complete",
      "careTeam" : [ {
        "sequence" : 1,
        "provider" : {
          "identifier" : {
            "type" : {
              "coding" : [ {
                "system" : "http://hl7.org/fhir/us/carin-bb/CodeSystem/C4BBIdentifierType",
                "code" : "npi",
                "display" : "National Provider Identifier"
              } ]
            },
            "value" : "2222222222"
          }
        },
        "role" : {
          "coding" : [ {
            "system" : "http://hl7.org/fhir/us/carin-bb/CodeSystem/C4BBClaimCareTeamRole",
            "code" : "attending",
            "display" : "Attending"
          } ]
        }
      }, {
        "sequence" : 2,
        "provider" : {
          "identifier" : {
            "type" : {
              "coding" : [ {
                "system" : "http://hl7.org/fhir/us/carin-bb/CodeSystem/C4BBIdentifierType",
                "code" : "npi",
                "display" : "National Provider Identifier"
              } ]
            },
            "value" : "3333333333"
          }
        },
        "role" : {
          "coding" : [ {
            "system" : "http://hl7.org/fhir/us/carin-bb/CodeSystem/C4BBClaimCareTeamRole",
            "code" : "operating",
            "display" : "Operating"
          } ]
        }
      }, {
        "sequence" : 3,
        "provider" : {
          "identifier" : {
            "type" : {
              "coding" : [ {
                "system" : "http://hl7.org/fhir/us/carin-bb/CodeSystem/C4BBIdentifierType",
                "code" : "npi",
                "display" : "National Provider Identifier"
              } ]
            },
            "value" : "4444"
          }
        },
        "role" : {
          "coding" : [ {
            "system" : "http://hl7.org/fhir/us/carin-bb/CodeSystem/C4BBClaimCareTeamRole",
            "code" : "otheroperating",
            "display" : "Other Operating"
          } ]
        }
      }, {
        "sequence" : 4,
        "provider" : {
          "identifier" : {
            "type" : {
              "coding" : [ {
                "system" : "http://hl7.org/fhir/us/carin-bb/CodeSystem/C4BBIdentifierType",
                "code" : "npi",
                "display" : "National Provider Identifier"
              } ]
            },
            "value" : "345345345"
          }
        },
        "role" : {
          "coding" : [ {
            "system" : "http://hl7.org/fhir/us/carin-bb/CodeSystem/C4BBClaimCareTeamRole",
            "code" : "performing",
            "display" : "Performing provider"
          } ]
        }
      } ],
      "supportingInfo" : [ {
        "sequence" : 1,
        "category" : {
          "coding" : [ {
            "system" : "http://hl7.org/fhir/us/carin-bb/CodeSystem/C4BBSupportingInfoType",
            "code" : "clmrecvddate",
            "display" : "Claim Received Date"
          }, {
            "system" : "https://bluebutton.cms.gov/resources/codesystem/information",
            "code" : "https://bluebutton.cms.gov/resources/variables/nch_wkly_proc_dt",
            "display" : "NCH Weekly Claim Processing Date"
          } ]
        },
        "timingDate" : "2011-02-26"
      }, {
        "sequence" : 2,
        "category" : {
          "coding" : [ {
            "system" : "http://terminology.hl7.org/CodeSystem/claiminformationcategory",
            "code" : "info",
            "display" : "Information"
          }, {
            "system" : "https://bluebutton.cms.gov/resources/codesystem/information",
            "code" : "https://bluebutton.cms.gov/resources/variables/clm_mco_pd_sw",
            "display" : "Claim MCO Paid Switch"
          } ]
        },
        "code" : {
          "coding" : [ {
            "system" : "https://bluebutton.cms.gov/resources/variables/clm_mco_pd_sw",
            "code" : "0",
            "display" : "No managed care organization (MCO) payment"
          } ]
        }
      }, {
        "sequence" : 3,
        "category" : {
          "coding" : [ {
            "system" : "http://hl7.org/fhir/us/carin-bb/CodeSystem/C4BBSupportingInfoType",
            "code" : "typeofbill",
            "display" : "Type of Bill"
          } ]
        },
        "code" : {
          "coding" : [ {
            "system" : "https://bluebutton.cms.gov/resources/variables/clm_freq_cd",
            "code" : "1",
            "display" : "Admit thru discharge claim"
          } ]
        }
      }, {
        "sequence" : 4,
        "category" : {
          "coding" : [ {
            "system" : "http://hl7.org/fhir/us/carin-bb/CodeSystem/C4BBSupportingInfoType",
            "code" : "discharge-status",
            "display" : "Discharge Status"
          } ]
        },
        "code" : {
          "coding" : [ {
            "system" : "https://bluebutton.cms.gov/resources/variables/ptnt_dschrg_stus_cd",
            "code" : "1"
          } ]
        }
      }, {
        "sequence" : 5,
        "category" : {
          "coding" : [ {
            "system" : "http://terminology.hl7.org/CodeSystem/claiminformationcategory",
            "code" : "info",
            "display" : "Information"
          }, {
            "system" : "https://bluebutton.cms.gov/resources/codesystem/information",
            "code" : "https://bluebutton.cms.gov/resources/variables/nch_prmry_pyr_cd",
            "display" : "NCH Primary Payer Code (if not Medicare)"
          } ]
        },
        "code" : {
          "coding" : [ {
            "system" : "https://bluebutton.cms.gov/resources/variables/nch_prmry_pyr_cd",
            "code" : "A",
            "display" : "Employer group health plan (EGHP) insurance for an aged beneficiary"
          } ]
        }
      } ],
      "diagnosis" : [ {
        "sequence" : 1,
        "diagnosisCodeableConcept" : {
          "coding" : [ {
            "system" : "http://hl7.org/fhir/sid/icd-10",
            "code" : "R5555"
          } ]
        },
        "type" : [ {
          "coding" : [ {
            "system" : "http://terminology.hl7.org/CodeSystem/ex-diagnosistype",
            "code" : "principal",
            "display" : "Principal Diagnosis"
          } ]
        } ]
      }, {
        "sequence" : 2,
        "diagnosisCodeableConcept" : {
          "coding" : [ {
            "system" : "http://hl7.org/fhir/sid/icd-10",
            "code" : "I9999"
          } ]
        },
        "type" : [ {
          "coding" : [ {
            "system" : "http://hl7.org/fhir/us/carin-bb/CodeSystem/C4BBClaimDiagnosisType",
            "code" : "other",
            "display" : "Other"
          } ]
        } ]
      }, {
        "sequence" : 3,
        "diagnosisCodeableConcept" : {
          "coding" : [ {
            "system" : "http://hl7.org/fhir/sid/icd-10",
            "code" : "R2222"
          } ]
        },
        "type" : [ {
          "coding" : [ {
            "system" : "http://hl7.org/fhir/us/carin-bb/CodeSystem/C4BBClaimDiagnosisType",
            "code" : "externalcauseofinjury",
            "display" : "External Cause of Injury"
          } ]
        } ]
      }, {
        "sequence" : 4,
        "diagnosisCodeableConcept" : {
          "coding" : [ {
            "system" : "http://hl7.org/fhir/sid/icd-10",
            "code" : "R3333"
          } ]
        },
        "type" : [ {
          "coding" : [ {
            "system" : "http://hl7.org/fhir/us/carin-bb/CodeSystem/C4BBClaimDiagnosisType",
            "code" : "externalcauseofinjury",
            "display" : "External Cause of Injury"
          } ]
        } ]
      }, {
        "sequence" : 5,
        "diagnosisCodeableConcept" : {
          "coding" : [ {
            "system" : "http://hl7.org/fhir/sid/icd-10",
            "code" : "R1122"
          } ]
        },
        "type" : [ {
          "coding" : [ {
            "system" : "http://hl7.org/fhir/us/carin-bb/CodeSystem/C4BBClaimDiagnosisType",
            "code" : "patientreasonforvisit",
            "display" : "Patient Reason for Visit"
          } ]
        } ]
      } ],
      "procedure" : [ {
        "sequence" : 1,
        "date" : "2016-01-16T00:00:00+00:00",
        "procedureCodeableConcept" : {
          "coding" : [ {
            "system" : "http://hl7.org/fhir/sid/icd-10",
            "code" : "0AABBZZ"
          } ]
        }
      } ],
      "insurance" : [ {
        "coverage" : {
          "reference" : "Coverage/part-b-567834"
        }
      } ],
      "item" : [ {
        "sequence" : 25,
        "careTeamSequence" : [ 4 ],
        "revenue" : {
          "coding" : [ {
            "system" : "https://bluebutton.cms.gov/resources/variables/rev_cntr",
            "code" : "1"
          } ]
        },
        "productOrService" : {
          "extension" : [ {
            "url" : "http://hl7.org/fhir/sid/ndc",
            "valueCoding" : {
              "system" : "http://hl7.org/fhir/sid/ndc",
              "code" : "987654321"
            }
          } ],
          "coding" : [ {
            "system" : "https://bluebutton.cms.gov/resources/codesystem/hcpcs",
            "code" : "M99"
          } ]
        },
        "modifier" : [ {
          "coding" : [ {
            "system" : "https://bluebutton.cms.gov/resources/codesystem/hcpcs",
            "code" : "XX"
          } ]
        }, {
          "coding" : [ {
            "system" : "https://bluebutton.cms.gov/resources/variables/rev_cntr_ndc_qty_qlfr_cd",
            "code" : "GG"
          } ]
        } ],
        "servicedDate" : "1942-01-03",
        "locationAddress" : {
          "state" : "KY"
        },
        "quantity" : {
          "value" : 77
        },
        "adjudication" : [ {
          "category" : {
            "coding" : [ {
              "system" : "http://hl7.org/fhir/us/carin-bb/CodeSystem/C4BBAdjudicationDiscriminator",
              "code" : "denialreason",
              "display" : "Denial Reason"
            } ]
          },
          "reason" : {
            "coding" : [ {
              "system" : "https://bluebutton.cms.gov/resources/variables/rev_cntr_1st_ansi_cd",
              "code" : "CO120"
            } ]
          }
        }, {
          "category" : {
            "coding" : [ {
              "system" : "http://hl7.org/fhir/us/carin-bb/CodeSystem/C4BBAdjudicationDiscriminator",
              "code" : "denialreason",
              "display" : "Denial Reason"
            } ]
          },
          "reason" : {
            "coding" : [ {
              "system" : "https://bluebutton.cms.gov/resources/variables/rev_cntr_2nd_ansi_cd",
              "code" : "CR121"
            } ]
          }
        }, {
          "category" : {
            "coding" : [ {
              "system" : "http://terminology.hl7.org/CodeSystem/adjudication",
              "code" : "submitted",
              "display" : "Submitted Amount"
            }, {
              "system" : "https://bluebutton.cms.gov/resources/codesystem/adjudication",
              "code" : "https://bluebutton.cms.gov/resources/variables/rev_cntr_rate_amt",
              "display" : "Revenue Center Rate Amount"
            } ]
          },
          "amount" : {
            "value" : 5.0,
            "currency" : "USD"
          }
        }, {
          "category" : {
            "coding" : [ {
              "system" : "http://terminology.hl7.org/CodeSystem/adjudication",
              "code" : "submitted",
              "display" : "Submitted Amount"
            }, {
              "system" : "https://bluebutton.cms.gov/resources/codesystem/adjudication",
              "code" : "https://bluebutton.cms.gov/resources/variables/rev_cntr_tot_chrg_amt",
              "display" : "Revenue Center Total Charge Amount"
            } ]
          },
          "amount" : {
            "value" : 999.85,
            "currency" : "USD"
          }
        }, {
          "category" : {
            "coding" : [ {
              "system" : "http://hl7.org/fhir/us/carin-bb/CodeSystem/C4BBAdjudication",
              "code" : "noncovered",
              "display" : "Noncovered"
            }, {
              "system" : "https://bluebutton.cms.gov/resources/codesystem/adjudication",
              "code" : "https://bluebutton.cms.gov/resources/variables/rev_cntr_ncvrd_chrg_amt",
              "display" : "Revenue Center Non-Covered Charge Amount"
            } ]
          },
          "amount" : {
            "value" : 134.0,
            "currency" : "USD"
          }
        }, {
          "category" : {
            "coding" : [ {
              "system" : "http://terminology.hl7.org/CodeSystem/adjudication",
              "code" : "deductible",
              "display" : "Deductible"
            }, {
              "system" : "https://bluebutton.cms.gov/resources/codesystem/adjudication",
              "code" : "https://bluebutton.cms.gov/resources/variables/rev_cntr_blood_ddctbl_amt",
              "display" : "Revenue Center Blood Deductible Amount"
            } ]
          },
          "amount" : {
            "value" : 10.45,
            "currency" : "USD"
          }
        }, {
          "category" : {
            "coding" : [ {
              "system" : "http://terminology.hl7.org/CodeSystem/adjudication",
              "code" : "deductible",
              "display" : "Deductible"
            }, {
              "system" : "https://bluebutton.cms.gov/resources/codesystem/adjudication",
              "code" : "https://bluebutton.cms.gov/resources/variables/rev_cntr_cash_ddctbl_amt",
              "display" : "Revenue Center Cash Deductible Amount"
            } ]
          },
          "amount" : {
            "value" : 12.89,
            "currency" : "USD"
          }
        }, {
          "category" : {
            "coding" : [ {
              "system" : "http://hl7.org/fhir/us/carin-bb/CodeSystem/C4BBAdjudication",
              "code" : "coinsurance",
              "display" : "Co-insurance"
            }, {
              "system" : "https://bluebutton.cms.gov/resources/codesystem/adjudication",
              "code" : "https://bluebutton.cms.gov/resources/variables/rev_cntr_coinsrnc_wge_adjstd_c",
              "display" : "Revenue Center Coinsurance/Wage Adjusted Coinsurance Amount"
            } ]
          },
          "amount" : {
            "value" : 15.23,
            "currency" : "USD"
          }
        }, {
          "category" : {
            "coding" : [ {
              "system" : "http://hl7.org/fhir/us/carin-bb/CodeSystem/C4BBAdjudication",
              "code" : "coinsurance",
              "display" : "Co-insurance"
            }, {
              "system" : "https://bluebutton.cms.gov/resources/codesystem/adjudication",
              "code" : "https://bluebutton.cms.gov/resources/variables/rev_cntr_rdcd_coinsrnc_amt",
              "display" : "Revenue Center Reduced Coinsurance Amount"
            } ]
          },
          "amount" : {
            "value" : 11.0,
            "currency" : "USD"
          }
        }, {
          "category" : {
            "coding" : [ {
              "system" : "http://hl7.org/fhir/us/carin-bb/CodeSystem/C4BBAdjudication",
              "code" : "priorpayerpaid",
              "display" : "Prior payer paid"
            }, {
              "system" : "https://bluebutton.cms.gov/resources/codesystem/adjudication",
              "code" : "https://bluebutton.cms.gov/resources/variables/rev_cntr_1st_msp_pd_amt",
              "display" : "Revenue Center 1st Medicare Secondary Payer (MSP) Paid Amount"
            } ]
          },
          "amount" : {
            "value" : 0.0,
            "currency" : "USD"
          }
        }, {
          "category" : {
            "coding" : [ {
              "system" : "http://hl7.org/fhir/us/carin-bb/CodeSystem/C4BBAdjudication",
              "code" : "priorpayerpaid",
              "display" : "Prior payer paid"
            }, {
              "system" : "https://bluebutton.cms.gov/resources/codesystem/adjudication",
              "code" : "https://bluebutton.cms.gov/resources/variables/rev_cntr_2nd_msp_pd_amt",
              "display" : "Revenue Center 2nd Medicare Secondary Payer (MSP) Paid Amount"
            } ]
          },
          "amount" : {
            "value" : 0.0,
            "currency" : "USD"
          }
        }, {
          "category" : {
            "coding" : [ {
              "system" : "http://hl7.org/fhir/us/carin-bb/CodeSystem/C4BBAdjudication",
              "code" : "paidtoprovider",
              "display" : "Paid to provider"
            }, {
              "system" : "https://bluebutton.cms.gov/resources/codesystem/adjudication",
              "code" : "https://bluebutton.cms.gov/resources/variables/rev_cntr_prvdr_pmt_amt",
              "display" : "Revenue Center (Medicare) Provider Payment Amount"
            } ]
          },
          "amount" : {
            "value" : 200.0,
            "currency" : "USD"
          }
        }, {
          "category" : {
            "coding" : [ {
              "system" : "http://hl7.org/fhir/us/carin-bb/CodeSystem/C4BBAdjudication",
              "code" : "paidtopatient",
              "display" : "Paid to patient"
            }, {
              "system" : "https://bluebutton.cms.gov/resources/codesystem/adjudication",
              "code" : "https://bluebutton.cms.gov/resources/variables/rev_cntr_bene_pmt_amt",
              "display" : "Revenue Center Payment Amount to Beneficiary"
            } ]
          },
          "amount" : {
            "value" : 300.0,
            "currency" : "USD"
          }
        }, {
          "category" : {
            "coding" : [ {
              "system" : "http://hl7.org/fhir/us/carin-bb/CodeSystem/C4BBAdjudication",
              "code" : "paidbypatient",
              "display" : "Paid by patient"
            }, {
              "system" : "https://bluebutton.cms.gov/resources/codesystem/adjudication",
              "code" : "https://bluebutton.cms.gov/resources/variables/rev_cntr_ptnt_rspnsblty_pmt",
              "display" : "Revenue Center Patient Responsibility Payment Amount"
            } ]
          },
          "amount" : {
            "value" : 500.0,
            "currency" : "USD"
          }
        }, {
          "category" : {
            "coding" : [ {
              "system" : "http://terminology.hl7.org/CodeSystem/adjudication",
              "code" : "submitted",
              "display" : "Submitted Amount"
            }, {
              "system" : "https://bluebutton.cms.gov/resources/codesystem/adjudication",
              "code" : "https://bluebutton.cms.gov/resources/variables/rev_cntr_pmt_amt_amt",
              "display" : "Revenue Center (Medicare) Payment Amount"
            } ]
          },
          "amount" : {
            "value" : 5000.0,
            "currency" : "USD"
          }
        } ]
      } ],
      "total" : [ {
        "category" : {
          "coding" : [ {
            "system" : "http://terminology.hl7.org/CodeSystem/adjudication",
            "code" : "submitted",
            "display" : "Submitted Amount"
          }, {
            "system" : "https://bluebutton.cms.gov/resources/codesystem/adjudication",
            "code" : "https://bluebutton.cms.gov/resources/variables/clm_tot_chrg_amt",
            "display" : "Claim Total Charge Amount"
          } ]
        },
        "amount" : {
          "value" : 8888.85,
          "currency" : "USD"
        }
      } ],
      "payment" : {
        "amount" : {
          "value" : 693.11,
          "currency" : "USD"
        }
      },
      "benefitBalance" : [ {
        "category" : {
          "coding" : [ {
            "system" : "http://terminology.hl7.org/CodeSystem/ex-benefitcategory",
            "code" : "1",
            "display" : "Medical Care"
          } ]
        },
        "financial" : [ {
          "type" : {
            "coding" : [ {
              "system" : "https://bluebutton.cms.gov/resources/codesystem/benefit-balance",
              "code" : "https://bluebutton.cms.gov/resources/variables/nch_profnl_cmpnt_chrg_amt",
              "display" : "Professional Component Charge Amount"
            } ]
          },
          "usedMoney" : {
            "value" : 66.89,
            "currency" : "USD"
          }
        }, {
          "type" : {
            "coding" : [ {
              "system" : "https://bluebutton.cms.gov/resources/codesystem/benefit-balance",
              "code" : "https://bluebutton.cms.gov/resources/variables/nch_bene_ptb_ddctbl_amt",
              "display" : "NCH Beneficiary Part B Deductible Amount"
            } ]
          },
          "usedMoney" : {
            "value" : 112.0,
            "currency" : "USD"
          }
        }, {
          "type" : {
            "coding" : [ {
              "system" : "https://bluebutton.cms.gov/resources/codesystem/benefit-balance",
              "code" : "https://bluebutton.cms.gov/resources/variables/nch_bene_ptb_coinsrnc_amt",
              "display" : "NCH Beneficiary Part B Coinsurance Amount"
            } ]
          },
          "usedMoney" : {
            "value" : 175.73,
            "currency" : "USD"
          }
        }, {
          "type" : {
            "coding" : [ {
              "system" : "https://bluebutton.cms.gov/resources/codesystem/benefit-balance",
              "code" : "https://bluebutton.cms.gov/resources/variables/clm_op_prvdr_pmt_amt",
              "display" : "Claim Outpatient Provider Payment Amount"
            } ]
          },
          "usedMoney" : {
            "value" : 693.92,
            "currency" : "USD"
          }
        }, {
          "type" : {
            "coding" : [ {
              "system" : "https://bluebutton.cms.gov/resources/codesystem/benefit-balance",
              "code" : "https://bluebutton.cms.gov/resources/variables/clm_op_bene_pmt_amt",
              "display" : "Claim Outpatient Payment Amount to Beneficiary"
            } ]
          },
          "usedMoney" : {
            "value" : 44.0,
            "currency" : "USD"
          }
        }, {
          "type" : {
            "coding" : [ {
              "system" : "https://bluebutton.cms.gov/resources/codesystem/benefit-balance",
              "code" : "https://bluebutton.cms.gov/resources/variables/nch_bene_blood_ddctbl_lblty_am",
              "display" : "NCH Beneficiary Blood Deductible Liability Amount"
            } ]
          },
          "usedMoney" : {
            "value" : 6.0,
            "currency" : "USD"
          }
        }, {
          "type" : {
            "coding" : [ {
              "system" : "https://bluebutton.cms.gov/resources/codesystem/benefit-balance",
              "code" : "https://bluebutton.cms.gov/resources/variables/prpayamt",
              "display" : "NCH Primary Payer (if not Medicare) Claim Paid Amount"
            } ]
          },
          "usedMoney" : {
            "value" : 11.0,
            "currency" : "USD"
          }
        } ]
      } ]
    }
  }, {
    "resource" : {
      "resourceType" : "ExplanationOfBenefit",
      "id" : "dme-2188888888",
      "meta" : {
        "lastUpdated" : "IGNORED_FIELD",
        "profile" : [ "http://hl7.org/fhir/us/carin-bb/StructureDefinition/C4BB-ExplanationOfBenefit-Inpatient-Institutional" ]
      },
      "contained" : [ {
        "resourceType" : "Observation",
        "id" : "line-observation-1",
        "status" : "unknown",
        "code" : {
          "coding" : [ {
            "system" : "https://bluebutton.cms.gov/resources/variables/line_hct_hgb_type_cd",
            "code" : "R2",
            "display" : "Hematocrit Test"
          } ]
        },
        "valueQuantity" : {
          "value" : 44.4
        }
      } ],
      "extension" : [ {
        "url" : "https://bluebutton.cms.gov/resources/variables/nch_near_line_rec_ident_cd",
        "valueCoding" : {
          "system" : "https://bluebutton.cms.gov/resources/variables/nch_near_line_rec_ident_cd",
          "code" : "M",
          "display" : "Part B DMEPOS claim record (processed by DME Regional Carrier)"
        }
      }, {
        "url" : "https://bluebutton.cms.gov/resources/variables/carr_num",
        "valueIdentifier" : {
          "system" : "https://bluebutton.cms.gov/resources/variables/carr_num",
          "value" : "99999"
        }
      }, {
        "url" : "https://bluebutton.cms.gov/resources/variables/carr_clm_cntl_num",
        "valueIdentifier" : {
          "system" : "https://bluebutton.cms.gov/resources/variables/carr_clm_cntl_num",
          "value" : "74655592568216"
        }
      }, {
        "url" : "https://bluebutton.cms.gov/resources/variables/carr_clm_pmt_dnl_cd",
        "valueCoding" : {
          "system" : "https://bluebutton.cms.gov/resources/variables/carr_clm_pmt_dnl_cd",
          "code" : "1",
          "display" : "Physician/supplier"
        }
      }, {
        "url" : "https://bluebutton.cms.gov/resources/variables/asgmntcd",
        "valueCoding" : {
          "system" : "https://bluebutton.cms.gov/resources/variables/asgmntcd",
          "code" : "A",
          "display" : "Assigned claim"
        }
      }, {
        "url" : "https://bluebutton.cms.gov/resources/variables/clm_clncl_tril_num",
        "valueIdentifier" : {
          "system" : "https://bluebutton.cms.gov/resources/variables/clm_clncl_tril_num",
          "value" : "0"
        }
      }, {
        "url" : "https://bluebutton.cms.gov/resources/variables/carr_clm_entry_cd",
        "valueCoding" : {
          "system" : "https://bluebutton.cms.gov/resources/variables/carr_clm_entry_cd",
          "code" : "1",
          "display" : "Original debit; void of original debit (If CLM_DISP_CD = 3, code 1 means voided original debit)"
        }
      } ],
      "identifier" : [ {
        "type" : {
          "coding" : [ {
            "system" : "http://hl7.org/fhir/us/carin-bb/CodeSystem/C4BBIdentifierType",
            "code" : "uc",
            "display" : "Unique Claim ID"
          } ]
        },
        "system" : "https://bluebutton.cms.gov/resources/variables/clm_id",
        "value" : "2188888888"
      }, {
        "type" : {
          "coding" : [ {
            "system" : "http://hl7.org/fhir/us/carin-bb/CodeSystem/C4BBIdentifierType",
            "code" : "uc",
            "display" : "Unique Claim ID"
          } ]
        },
        "system" : "https://bluebutton.cms.gov/resources/identifier/claim-group",
        "value" : "900"
      } ],
      "status" : "active",
      "type" : {
        "coding" : [ {
          "system" : "https://bluebutton.cms.gov/resources/variables/nch_clm_type_cd",
          "code" : "82",
          "display" : "DMERC; DMEPOS claim"
        }, {
          "system" : "https://bluebutton.cms.gov/resources/codesystem/eob-type",
          "code" : "DME"
        }, {
          "system" : "http://terminology.hl7.org/CodeSystem/claim-type",
          "code" : "institutional",
          "display" : "Institutional"
        } ]
      },
      "use" : "claim",
      "patient" : {
        "reference" : "Patient/567834"
      },
      "billablePeriod" : {
        "start" : "2014-02-03",
        "end" : "2014-02-03"
      },
      "created" : "IGNORED_FIELD",
      "insurer" : {
        "identifier" : {
          "value" : "CMS"
        }
      },
      "referral" : {
        "identifier" : {
          "type" : {
            "coding" : [ {
              "system" : "http://hl7.org/fhir/us/carin-bb/CodeSystem/C4BBIdentifierType",
              "code" : "npi",
              "display" : "National Provider Identifier"
            } ]
          },
          "value" : "1306849450"
        },
        "display" : "DR. HAROLD LEROY SMITSON II M.D."
      },
      "outcome" : "complete",
      "disposition" : "01",
      "careTeam" : [ {
        "sequence" : 1,
        "provider" : {
          "identifier" : {
            "type" : {
              "coding" : [ {
                "system" : "http://hl7.org/fhir/us/carin-bb/CodeSystem/C4BBIdentifierType",
                "code" : "npi",
                "display" : "National Provider Identifier"
              } ]
            },
            "value" : "1306849450"
          },
          "display" : "DR. HAROLD LEROY SMITSON II M.D."
        },
        "role" : {
          "coding" : [ {
            "system" : "http://hl7.org/fhir/us/carin-bb/CodeSystem/C4BBClaimCareTeamRole",
            "code" : "referring",
            "display" : "Referring"
          } ]
        }
      }, {
        "extension" : [ {
          "url" : "https://bluebutton.cms.gov/resources/variables/prtcptng_ind_cd",
          "valueCoding" : {
            "system" : "https://bluebutton.cms.gov/resources/variables/prtcptng_ind_cd",
            "code" : "1",
            "display" : "Participating"
          }
        } ],
        "sequence" : 2,
        "provider" : {
          "identifier" : {
            "type" : {
              "coding" : [ {
                "system" : "http://hl7.org/fhir/us/carin-bb/CodeSystem/C4BBIdentifierType",
                "code" : "npi",
                "display" : "National Provider Identifier"
              } ]
            },
            "value" : "1244444444"
          }
        },
        "responsible" : true,
        "role" : {
          "coding" : [ {
            "system" : "http://hl7.org/fhir/us/carin-bb/CodeSystem/C4BBClaimCareTeamRole",
            "code" : "performing",
            "display" : "Performing provider"
          } ]
        },
        "qualification" : {
          "coding" : [ {
            "system" : "https://bluebutton.cms.gov/resources/variables/prvdr_spclty",
            "code" : "A5",
            "display" : "Pharmacy (DMERC)"
          } ]
        }
      } ],
      "supportingInfo" : [ {
        "sequence" : 1,
        "category" : {
          "coding" : [ {
            "system" : "http://hl7.org/fhir/us/carin-bb/CodeSystem/C4BBSupportingInfoType",
            "code" : "clmrecvddate",
            "display" : "Claim Received Date"
          }, {
            "system" : "https://bluebutton.cms.gov/resources/codesystem/information",
            "code" : "https://bluebutton.cms.gov/resources/variables/nch_wkly_proc_dt",
            "display" : "NCH Weekly Claim Processing Date"
          } ]
        },
        "timingDate" : "2014-02-14"
      }, {
        "sequence" : 2,
        "category" : {
          "coding" : [ {
            "system" : "http://terminology.hl7.org/CodeSystem/claiminformationcategory",
            "code" : "info",
            "display" : "Information"
          }, {
            "system" : "https://bluebutton.cms.gov/resources/codesystem/information",
            "code" : "https://bluebutton.cms.gov/resources/variables/line_hct_hgb_rslt_num",
            "display" : "Hematocrit / Hemoglobin Test Results"
          } ]
        },
        "valueReference" : {
          "reference" : "#line-observation-1"
        }
      } ],
      "diagnosis" : [ {
        "sequence" : 1,
        "diagnosisCodeableConcept" : {
          "coding" : [ {
            "system" : "http://hl7.org/fhir/sid/icd-10",
            "code" : "R5555"
          } ]
        },
        "type" : [ {
          "coding" : [ {
            "system" : "http://terminology.hl7.org/CodeSystem/ex-diagnosistype",
            "code" : "principal",
            "display" : "Principal Diagnosis"
          } ]
        } ]
      }, {
        "sequence" : 2,
        "diagnosisCodeableConcept" : {
          "coding" : [ {
            "system" : "http://hl7.org/fhir/sid/icd-10",
            "code" : "R6666"
          } ]
        },
        "type" : [ {
          "coding" : [ {
            "system" : "http://hl7.org/fhir/us/carin-bb/CodeSystem/C4BBClaimDiagnosisType",
            "code" : "other",
            "display" : "Other"
          } ]
        } ]
      }, {
        "sequence" : 3,
        "diagnosisCodeableConcept" : {
          "coding" : [ {
            "system" : "http://hl7.org/fhir/sid/icd-10",
            "code" : "G6666"
          } ]
        },
        "type" : [ {
          "coding" : [ {
            "system" : "http://hl7.org/fhir/us/carin-bb/CodeSystem/C4BBClaimDiagnosisType",
            "code" : "secondary",
            "display" : "Secondary"
          } ]
        } ]
      } ],
      "insurance" : [ {
        "coverage" : {
          "reference" : "Coverage/part-a-567834"
        }
      } ],
      "item" : [ {
        "extension" : [ {
          "url" : "https://bluebutton.cms.gov/resources/variables/suplrnum",
          "valueIdentifier" : {
            "system" : "https://bluebutton.cms.gov/resources/variables/suplrnum",
            "value" : "1219966666"
          }
        }, {
          "url" : "https://bluebutton.cms.gov/resources/variables/dmerc_line_scrn_svgs_amt",
          "valueQuantity" : {
            "value" : 0.0
          }
        }, {
          "url" : "https://bluebutton.cms.gov/resources/variables/dmerc_line_mtus_cnt",
          "valueQuantity" : {
            "value" : 60,
            "unit" : "Number of services",
            "system" : "https://bluebutton.cms.gov/resources/variables/dmerc_line_mtus_cd",
            "code" : "3"
          }
        }, {
          "url" : "https://bluebutton.cms.gov/resources/variables/dmerc_line_prcng_state_cd",
          "valueCoding" : {
            "system" : "https://bluebutton.cms.gov/resources/variables/dmerc_line_prcng_state_cd",
            "code" : "AL"
          }
        }, {
          "url" : "https://bluebutton.cms.gov/resources/variables/dmerc_line_supplr_type_cd",
          "valueCoding" : {
            "system" : "https://bluebutton.cms.gov/resources/variables/dmerc_line_supplr_type_cd",
            "code" : "3",
            "display" : "Suppliers (other than sole proprietorship) for whom employer identification (EI) numbers are used in coding the ID field."
          }
        }, {
          "url" : "https://bluebutton.cms.gov/resources/variables/betos_cd",
          "valueCoding" : {
            "system" : "https://bluebutton.cms.gov/resources/variables/betos_cd",
            "code" : "D9Z"
          }
        }, {
          "url" : "https://bluebutton.cms.gov/resources/variables/line_bene_prmry_pyr_cd",
          "valueCoding" : {
            "system" : "https://bluebutton.cms.gov/resources/variables/line_bene_prmry_pyr_cd",
            "code" : "E",
            "display" : "Workers' compensation"
          }
        }, {
          "url" : "https://bluebutton.cms.gov/resources/variables/line_prcsg_ind_cd",
          "valueCoding" : {
            "system" : "https://bluebutton.cms.gov/resources/variables/line_prcsg_ind_cd",
            "code" : "A",
            "display" : "Allowed"
          }
        }, {
          "url" : "https://bluebutton.cms.gov/resources/variables/line_service_deductible",
          "valueCoding" : {
            "system" : "https://bluebutton.cms.gov/resources/variables/line_service_deductible",
            "code" : "0",
            "display" : "Service Subject to Deductible"
          }
        }, {
          "url" : "https://bluebutton.cms.gov/resources/variables/line_bene_prmry_pyr_cd",
          "valueCoding" : {
            "system" : "https://bluebutton.cms.gov/resources/variables/line_bene_prmry_pyr_cd",
            "code" : "E",
            "display" : "Workers' compensation"
          }
        } ],
        "sequence" : 1,
        "careTeamSequence" : [ 2 ],
        "diagnosisSequence" : [ 3 ],
        "informationSequence" : [ 2 ],
        "category" : {
          "coding" : [ {
            "system" : "https://bluebutton.cms.gov/resources/variables/line_cms_type_srvc_cd",
            "code" : "P",
            "display" : "Lump sum purchase of DME, prosthetics orthotics"
          } ]
        },
        "productOrService" : {
          "extension" : [ {
            "url" : "http://hl7.org/fhir/sid/ndc",
            "valueCoding" : {
              "system" : "http://hl7.org/fhir/sid/ndc",
              "code" : "500904610",
              "display" : "ACETAMINOPHEN AND CODEINE PHOSPHATE - ACETAMINOPHEN; CODEINE PHOSPHATE"
            }
          } ],
          "coding" : [ {
            "system" : "https://bluebutton.cms.gov/resources/codesystem/hcpcs",
            "code" : "345"
          } ]
        },
        "modifier" : [ {
          "coding" : [ {
            "system" : "https://bluebutton.cms.gov/resources/codesystem/hcpcs",
            "version" : "3",
            "code" : "YY"
          } ]
        } ],
        "servicedPeriod" : {
          "start" : "2014-02-03",
          "end" : "2014-02-03"
        },
        "locationCodeableConcept" : {
          "extension" : [ {
            "url" : "https://bluebutton.cms.gov/resources/variables/prvdr_state_cd",
            "valueCoding" : {
              "system" : "https://bluebutton.cms.gov/resources/variables/prvdr_state_cd",
              "code" : "MO"
            }
          } ],
          "coding" : [ {
            "system" : "https://bluebutton.cms.gov/resources/variables/line_place_of_srvc_cd",
            "code" : "12",
            "display" : "Home. Location, other than a hospital or other facility, where the patient receives care in a private residence."
          } ]
        },
        "quantity" : {
          "value" : 60
        },
        "adjudication" : [ {
          "category" : {
            "coding" : [ {
              "system" : "http://hl7.org/fhir/us/carin-bb/CodeSystem/C4BBAdjudication",
              "code" : "paidtoprovider",
              "display" : "Paid to provider"
            }, {
              "system" : "https://bluebutton.cms.gov/resources/codesystem/adjudication",
              "code" : "https://bluebutton.cms.gov/resources/variables/rev_cntr_prvdr_pmt_amt",
              "display" : "Revenue Center (Medicare) Provider Payment Amount"
            } ]
          },
          "amount" : {
            "value" : 120.0,
            "currency" : "USD"
          }
        }, {
          "category" : {
            "coding" : [ {
              "system" : "http://terminology.hl7.org/CodeSystem/adjudication",
              "code" : "eligible",
              "display" : "Eligible Amount"
            }, {
              "system" : "https://bluebutton.cms.gov/resources/codesystem/adjudication",
              "code" : "https://bluebutton.cms.gov/resources/variables/line_prmry_alowd_chrg_amt",
              "display" : "Line Primary Payer Allowed Charge Amount"
            } ]
          },
          "amount" : {
            "value" : 20.29,
            "currency" : "USD"
          }
        }, {
          "category" : {
            "coding" : [ {
              "system" : "http://terminology.hl7.org/CodeSystem/adjudication",
              "code" : "submitted",
              "display" : "Submitted Amount"
            }, {
              "system" : "https://bluebutton.cms.gov/resources/codesystem/adjudication",
              "code" : "https://bluebutton.cms.gov/resources/variables/line_dme_prchs_price_amt",
              "display" : "Line DME Purchase Price Amount"
            } ]
          },
          "amount" : {
            "value" : 82.29,
            "currency" : "USD"
          }
        }, {
          "extension" : [ {
            "url" : "https://bluebutton.cms.gov/resources/variables/line_pmt_80_100_cd",
            "valueCoding" : {
              "system" : "https://bluebutton.cms.gov/resources/variables/line_pmt_80_100_cd",
              "code" : "0",
              "display" : "80%"
            }
          } ],
          "category" : {
            "coding" : [ {
              "system" : "http://terminology.hl7.org/CodeSystem/adjudication",
              "code" : "benefit",
              "display" : "Benefit Amount"
            }, {
              "system" : "https://bluebutton.cms.gov/resources/codesystem/adjudication",
              "code" : "https://bluebutton.cms.gov/resources/variables/line_nch_pmt_amt",
              "display" : "Line NCH Medicare Payment Amount"
            } ]
          },
          "amount" : {
            "value" : 123.45,
            "currency" : "USD"
          }
        }, {
          "category" : {
            "coding" : [ {
              "system" : "http://hl7.org/fhir/us/carin-bb/CodeSystem/C4BBAdjudication",
              "code" : "paidtopatient",
              "display" : "Paid to patient"
            }, {
              "system" : "https://bluebutton.cms.gov/resources/codesystem/adjudication",
              "code" : "https://bluebutton.cms.gov/resources/variables/line_bene_pmt_amt",
              "display" : "Line Payment Amount to Beneficiary"
            } ]
          },
          "amount" : {
            "value" : 11.0,
            "currency" : "USD"
          }
        }, {
          "category" : {
            "coding" : [ {
              "system" : "http://hl7.org/fhir/us/carin-bb/CodeSystem/C4BBAdjudication",
              "code" : "paidtoprovider",
              "display" : "Paid to provider"
            }, {
              "system" : "https://bluebutton.cms.gov/resources/codesystem/adjudication",
              "code" : "https://bluebutton.cms.gov/resources/variables/line_prvdr_pmt_amt",
              "display" : "Line Provider Payment Amount"
            } ]
          },
          "amount" : {
            "value" : 120.0,
            "currency" : "USD"
          }
        }, {
          "category" : {
            "coding" : [ {
              "system" : "http://terminology.hl7.org/CodeSystem/adjudication",
              "code" : "deductible",
              "display" : "Deductible"
            }, {
              "system" : "https://bluebutton.cms.gov/resources/codesystem/adjudication",
              "code" : "https://bluebutton.cms.gov/resources/variables/line_bene_ptb_ddctbl_amt",
              "display" : "Line Beneficiary Part B Deductible Amount"
            } ]
          },
          "amount" : {
            "value" : 18.0,
            "currency" : "USD"
          }
        }, {
          "category" : {
            "coding" : [ {
              "system" : "http://hl7.org/fhir/us/carin-bb/CodeSystem/C4BBAdjudication",
              "code" : "priorpayerpaid",
              "display" : "Prior payer paid"
            }, {
              "system" : "https://bluebutton.cms.gov/resources/codesystem/adjudication",
              "code" : "https://bluebutton.cms.gov/resources/variables/line_bene_prmry_pyr_pd_amt",
              "display" : "Line Primary Payer (if not Medicare) Paid Amount"
            } ]
          },
          "amount" : {
            "value" : 11.0,
            "currency" : "USD"
          }
        }, {
          "category" : {
            "coding" : [ {
              "system" : "http://hl7.org/fhir/us/carin-bb/CodeSystem/C4BBAdjudication",
              "code" : "coinsurance",
              "display" : "Co-insurance"
            }, {
              "system" : "https://bluebutton.cms.gov/resources/codesystem/adjudication",
              "code" : "https://bluebutton.cms.gov/resources/variables/line_coinsrnc_amt",
              "display" : "Line Beneficiary Coinsurance Amount"
            } ]
          },
          "amount" : {
            "value" : 20.2,
            "currency" : "USD"
          }
        }, {
          "category" : {
            "coding" : [ {
              "system" : "http://terminology.hl7.org/CodeSystem/adjudication",
              "code" : "submitted",
              "display" : "Submitted Amount"
            }, {
              "system" : "https://bluebutton.cms.gov/resources/codesystem/adjudication",
              "code" : "https://bluebutton.cms.gov/resources/variables/line_sbmtd_chrg_amt",
              "display" : "Line Submitted Charge Amount"
            } ]
          },
          "amount" : {
            "value" : 130.45,
            "currency" : "USD"
          }
        }, {
          "category" : {
            "coding" : [ {
              "system" : "http://terminology.hl7.org/CodeSystem/adjudication",
              "code" : "eligible",
              "display" : "Eligible Amount"
            }, {
              "system" : "https://bluebutton.cms.gov/resources/codesystem/adjudication",
              "code" : "https://bluebutton.cms.gov/resources/variables/line_alowd_chrg_amt",
              "display" : "Line Allowed Charge Amount"
            } ]
          },
          "amount" : {
            "value" : 130.45,
            "currency" : "USD"
          }
        }, {
          "category" : {
            "coding" : [ {
              "system" : "http://hl7.org/fhir/us/carin-bb/CodeSystem/C4BBAdjudication",
              "code" : "paidtoprovider",
              "display" : "Paid to provider"
            }, {
              "system" : "https://bluebutton.cms.gov/resources/codesystem/adjudication",
              "code" : "https://bluebutton.cms.gov/resources/variables/line_bene_pmt_amt",
              "display" : "Line Payment Amount to Beneficiary"
            } ]
          },
          "amount" : {
            "value" : 82.29,
            "currency" : "USD"
          }
        }, {
          "category" : {
            "coding" : [ {
              "system" : "http://terminology.hl7.org/CodeSystem/adjudication",
              "code" : "submitted",
              "display" : "Submitted Amount"
            }, {
              "system" : "https://bluebutton.cms.gov/resources/codesystem/adjudication",
              "code" : "https://bluebutton.cms.gov/resources/variables/line_dme_prchs_price_amt",
              "display" : "Line DME Purchase Price Amount"
            } ]
          },
          "amount" : {
            "value" : 82.29,
            "currency" : "USD"
          }
        } ]
      } ],
      "total" : [ {
        "category" : {
          "coding" : [ {
            "system" : "http://hl7.org/fhir/us/carin-bb/CodeSystem/C4BBAdjudication",
            "code" : "priorpayerpaid",
            "display" : "Prior payer paid"
          }, {
            "system" : "https://bluebutton.cms.gov/resources/codesystem/adjudication",
            "code" : "https://bluebutton.cms.gov/resources/variables/clm_tot_chrg_amt",
            "display" : "Claim Total Charge Amount"
          } ]
        },
        "amount" : {
          "value" : 0.0,
          "currency" : "USD"
        }
      } ],
      "payment" : {
        "amount" : {
          "value" : 777.75,
          "currency" : "USD"
        }
      },
      "benefitBalance" : [ {
        "category" : {
          "coding" : [ {
            "system" : "http://terminology.hl7.org/CodeSystem/ex-benefitcategory",
            "code" : "1",
            "display" : "Medical Care"
          } ]
        },
        "financial" : [ {
          "type" : {
            "coding" : [ {
              "system" : "https://bluebutton.cms.gov/resources/codesystem/benefit-balance",
              "code" : "https://bluebutton.cms.gov/resources/variables/carr_clm_cash_ddctbl_apld_amt",
              "display" : "Carrier Claim Cash Deductible Applied Amount (sum of all line-level deductible amounts)"
            } ]
          },
          "usedMoney" : {
            "value" : 777.0,
            "currency" : "USD"
          }
        }, {
          "type" : {
            "coding" : [ {
              "system" : "https://bluebutton.cms.gov/resources/codesystem/benefit-balance",
              "code" : "https://bluebutton.cms.gov/resources/variables/nch_clm_prvdr_pmt_amt",
              "display" : "NCH Claim Provider Payment Amount"
            } ]
          },
          "usedMoney" : {
            "value" : 666.75,
            "currency" : "USD"
          }
        }, {
          "type" : {
            "coding" : [ {
              "system" : "https://bluebutton.cms.gov/resources/codesystem/benefit-balance",
              "code" : "https://bluebutton.cms.gov/resources/variables/nch_clm_bene_pmt_amt",
              "display" : "NCH Claim Payment Amount to Beneficiary"
            } ]
          },
          "usedMoney" : {
            "value" : 666.66,
            "currency" : "USD"
          }
        }, {
          "type" : {
            "coding" : [ {
              "system" : "https://bluebutton.cms.gov/resources/codesystem/benefit-balance",
              "code" : "https://bluebutton.cms.gov/resources/variables/nch_carr_clm_sbmtd_chrg_amt",
              "display" : "NCH Carrier Claim Submitted Charge Amount (sum of all line-level submitted charges)"
            } ]
          },
          "usedMoney" : {
            "value" : 1752.75,
            "currency" : "USD"
          }
        }, {
          "type" : {
            "coding" : [ {
              "system" : "https://bluebutton.cms.gov/resources/codesystem/benefit-balance",
              "code" : "https://bluebutton.cms.gov/resources/variables/nch_carr_clm_alowd_amt",
              "display" : "NCH Carrier Claim Allowed Charge Amount (sum of all line-level allowed charges)"
            } ]
          },
          "usedMoney" : {
            "value" : 754.79,
            "currency" : "USD"
          }
        } ]
      } ]
    }
  }, {
    "resource" : {
      "resourceType" : "ExplanationOfBenefit",
      "id" : "hha-2925555555",
      "meta" : {
        "lastUpdated" : "IGNORED_FIELD",
        "profile" : [ "http://hl7.org/fhir/us/carin-bb/StructureDefinition/C4BB-ExplanationOfBenefit-Professional-NonClinician" ]
      },
      "contained" : [ {
        "resourceType" : "Organization",
        "id" : "provider-org",
        "meta" : {
          "profile" : [ "http://hl7.org/fhir/us/carin-bb/StructureDefinition/C4BB-Organization" ]
        },
        "identifier" : [ {
          "type" : {
            "coding" : [ {
              "system" : "http://terminology.hl7.org/CodeSystem/v2-0203",
              "code" : "PRN"
            } ]
          },
          "value" : "45645"
        }, {
          "type" : {
            "coding" : [ {
              "system" : "http://hl7.org/fhir/us/carin-bb/CodeSystem/C4BBIdentifierType",
              "code" : "npi"
            } ]
          },
          "system" : "http://hl7.org/fhir/sid/us-npi",
          "value" : "1811111111"
        } ],
        "active" : true
      } ],
      "extension" : [ {
        "url" : "https://bluebutton.cms.gov/resources/variables/nch_near_line_rec_ident_cd",
        "valueCoding" : {
          "system" : "https://bluebutton.cms.gov/resources/variables/nch_near_line_rec_ident_cd",
          "code" : "W",
          "display" : "Part B institutional claim record (outpatient [HOP], HHA)"
        }
      }, {
        "url" : "https://bluebutton.cms.gov/resources/variables/clm_mdcr_non_pmt_rsn_cd",
        "valueCoding" : {
          "system" : "https://bluebutton.cms.gov/resources/variables/clm_mdcr_non_pmt_rsn_cd",
          "code" : "P",
          "display" : "Payment requested"
        }
      }, {
        "url" : "https://bluebutton.cms.gov/resources/variables/clm_srvc_clsfctn_type_cd",
        "valueCoding" : {
          "system" : "https://bluebutton.cms.gov/resources/variables/clm_srvc_clsfctn_type_cd",
          "code" : "2"
        }
      } ],
      "identifier" : [ {
        "type" : {
          "coding" : [ {
            "system" : "http://hl7.org/fhir/us/carin-bb/CodeSystem/C4BBIdentifierType",
            "code" : "uc",
            "display" : "Unique Claim ID"
          } ]
        },
        "system" : "https://bluebutton.cms.gov/resources/variables/clm_id",
        "value" : "2925555555"
      }, {
        "type" : {
          "coding" : [ {
            "system" : "http://hl7.org/fhir/us/carin-bb/CodeSystem/C4BBIdentifierType",
            "code" : "uc",
            "display" : "Unique Claim ID"
          } ]
        },
        "system" : "https://bluebutton.cms.gov/resources/identifier/claim-group",
        "value" : "900"
      } ],
      "status" : "active",
      "type" : {
        "coding" : [ {
          "system" : "https://bluebutton.cms.gov/resources/variables/nch_clm_type_cd",
          "code" : "10",
          "display" : "Home Health Agency (HHA) claim"
        }, {
          "system" : "https://bluebutton.cms.gov/resources/codesystem/eob-type",
          "code" : "HHA"
        }, {
          "system" : "http://terminology.hl7.org/CodeSystem/claim-type",
          "code" : "professional",
          "display" : "Professional"
        } ]
      },
      "use" : "claim",
      "patient" : {
        "reference" : "Patient/567834"
      },
      "billablePeriod" : {
        "start" : "2015-06-23",
        "end" : "2015-06-23"
      },
      "created" : "IGNORED_FIELD",
      "insurer" : {
        "identifier" : {
          "value" : "CMS"
        }
      },
      "provider" : {
        "reference" : "#provider-org"
      },
      "facility" : {
        "extension" : [ {
          "url" : "https://bluebutton.cms.gov/resources/variables/clm_fac_type_cd",
          "valueCoding" : {
            "system" : "https://bluebutton.cms.gov/resources/variables/clm_fac_type_cd",
            "code" : "3",
            "display" : "Home Health Agency (HHA)"
          }
        } ]
      },
      "outcome" : "complete",
      "careTeam" : [ {
        "sequence" : 1,
        "provider" : {
          "identifier" : {
            "type" : {
              "coding" : [ {
                "system" : "http://hl7.org/fhir/us/carin-bb/CodeSystem/C4BBIdentifierType",
                "code" : "npi",
                "display" : "National Provider Identifier"
              } ]
            },
            "value" : "2222222222"
          }
        },
        "role" : {
          "coding" : [ {
            "system" : "http://hl7.org/fhir/us/carin-bb/CodeSystem/C4BBClaimCareTeamRole",
            "code" : "attending",
            "display" : "Attending"
          } ]
        }
      }, {
        "sequence" : 2,
        "provider" : {
          "identifier" : {
            "type" : {
              "coding" : [ {
                "system" : "http://hl7.org/fhir/us/carin-bb/CodeSystem/C4BBIdentifierType",
                "code" : "npi",
                "display" : "National Provider Identifier"
              } ]
            },
            "value" : "345345345"
          }
        },
        "role" : {
          "coding" : [ {
            "system" : "http://hl7.org/fhir/us/carin-bb/CodeSystem/C4BBClaimCareTeamRole",
            "code" : "performing",
            "display" : "Performing provider"
          } ]
        }
      } ],
      "supportingInfo" : [ {
        "sequence" : 1,
        "category" : {
          "coding" : [ {
            "system" : "http://hl7.org/fhir/us/carin-bb/CodeSystem/C4BBSupportingInfoType",
            "code" : "clmrecvddate",
            "display" : "Claim Received Date"
          }, {
            "system" : "https://bluebutton.cms.gov/resources/codesystem/information",
            "code" : "https://bluebutton.cms.gov/resources/variables/nch_wkly_proc_dt",
            "display" : "NCH Weekly Claim Processing Date"
          } ]
        },
        "timingDate" : "2015-11-06"
      }, {
        "sequence" : 2,
        "category" : {
          "coding" : [ {
            "system" : "http://hl7.org/fhir/us/carin-bb/CodeSystem/C4BBSupportingInfoType",
            "code" : "typeofbill",
            "display" : "Type of Bill"
          } ]
        },
        "code" : {
          "coding" : [ {
            "system" : "https://bluebutton.cms.gov/resources/variables/clm_freq_cd",
            "code" : "1",
            "display" : "Admit thru discharge claim"
          } ]
        }
      }, {
        "sequence" : 3,
        "category" : {
          "coding" : [ {
            "system" : "http://hl7.org/fhir/us/carin-bb/CodeSystem/C4BBSupportingInfoType",
            "code" : "discharge-status",
            "display" : "Discharge Status"
          } ]
        },
        "code" : {
          "coding" : [ {
            "system" : "https://bluebutton.cms.gov/resources/variables/ptnt_dschrg_stus_cd",
            "code" : "1"
          } ]
        }
      }, {
        "sequence" : 4,
        "category" : {
          "coding" : [ {
            "system" : "http://terminology.hl7.org/CodeSystem/claiminformationcategory",
            "code" : "info",
            "display" : "Information"
          }, {
            "system" : "https://bluebutton.cms.gov/resources/codesystem/information",
            "code" : "https://bluebutton.cms.gov/resources/variables/nch_prmry_pyr_cd",
            "display" : "NCH Primary Payer Code (if not Medicare)"
          } ]
        },
        "code" : {
          "coding" : [ {
            "system" : "https://bluebutton.cms.gov/resources/variables/nch_prmry_pyr_cd",
            "code" : "A",
            "display" : "Employer group health plan (EGHP) insurance for an aged beneficiary"
          } ]
        }
      }, {
        "sequence" : 5,
        "category" : {
          "coding" : [ {
            "system" : "http://terminology.hl7.org/CodeSystem/claiminformationcategory",
            "code" : "info",
            "display" : "Information"
          }, {
            "system" : "https://bluebutton.cms.gov/resources/codesystem/information",
            "code" : "https://bluebutton.cms.gov/resources/variables/clm_pps_ind_cd",
            "display" : "Claim PPS Indicator Code"
          } ]
        },
        "code" : {
          "coding" : [ {
            "system" : "https://bluebutton.cms.gov/resources/variables/clm_pps_ind_cd",
            "code" : "2",
            "display" : "PPS bill; claim contains PPS indicator"
          } ]
        }
      }, {
        "sequence" : 6,
        "category" : {
          "coding" : [ {
            "system" : "http://terminology.hl7.org/CodeSystem/claiminformationcategory",
            "code" : "info",
            "display" : "Information"
          }, {
            "system" : "https://bluebutton.cms.gov/resources/codesystem/information",
            "code" : "https://bluebutton.cms.gov/resources/variables/clm_hha_lupa_ind_cd",
            "display" : "Claim HHA Low Utilization Payment Adjustment (LUPA) Indicator Code"
          } ]
        },
        "code" : {
          "coding" : [ {
            "system" : "https://bluebutton.cms.gov/resources/variables/clm_hha_lupa_ind_cd",
            "code" : "L",
            "display" : "Low utilization payment adjustment (LUPA) claim"
          } ]
        }
      }, {
        "sequence" : 7,
        "category" : {
          "coding" : [ {
            "system" : "http://terminology.hl7.org/CodeSystem/claiminformationcategory",
            "code" : "info",
            "display" : "Information"
          }, {
            "system" : "https://bluebutton.cms.gov/resources/codesystem/information",
            "code" : "https://bluebutton.cms.gov/resources/variables/clm_hha_rfrl_cd",
            "display" : "Claim HHA Referral Code"
          } ]
        },
        "code" : {
          "coding" : [ {
            "system" : "https://bluebutton.cms.gov/resources/variables/clm_hha_rfrl_cd",
            "code" : "1",
            "display" : "Physician referral - The patient was admitted upon the recommendation of a personal physician."
          } ]
        }
      }, {
        "sequence" : 8,
        "category" : {
          "coding" : [ {
            "system" : "http://terminology.hl7.org/CodeSystem/claiminformationcategory",
            "code" : "info",
            "display" : "Information"
          }, {
            "system" : "https://bluebutton.cms.gov/resources/codesystem/information",
            "code" : "https://bluebutton.cms.gov/resources/variables/clm_hha_tot_visit_cnt",
            "display" : "Claim HHA Total Visit Count"
          } ]
        },
        "valueQuantity" : {
          "value" : 3
        }
      }, {
        "sequence" : 9,
        "category" : {
          "coding" : [ {
            "system" : "http://hl7.org/fhir/us/carin-bb/CodeSystem/C4BBSupportingInfoType",
            "code" : "admissionperiod",
            "display" : "Admission Period"
          } ]
        },
        "timingPeriod" : {
          "start" : "2015-06-23"
        }
      } ],
      "diagnosis" : [ {
        "sequence" : 1,
        "diagnosisCodeableConcept" : {
          "coding" : [ {
            "system" : "http://hl7.org/fhir/sid/icd-9-cm",
            "code" : "H5555"
          } ]
        },
        "type" : [ {
          "coding" : [ {
            "system" : "http://terminology.hl7.org/CodeSystem/ex-diagnosistype",
            "code" : "principal",
            "display" : "principal"
          } ]
        } ]
      }, {
        "sequence" : 2,
        "diagnosisCodeableConcept" : {
          "coding" : [ {
            "system" : "http://hl7.org/fhir/sid/icd-10",
            "code" : "H8888"
          } ]
        },
        "type" : [ {
          "coding" : [ {
            "system" : "http://hl7.org/fhir/us/carin-bb/CodeSystem/C4BBClaimDiagnosisType",
            "code" : "secondary",
            "display" : "Secondary"
          } ]
        } ]
      }, {
        "sequence" : 3,
        "diagnosisCodeableConcept" : {
          "coding" : [ {
            "system" : "http://hl7.org/fhir/sid/icd-10",
            "code" : "R2222"
          } ]
        },
        "type" : [ {
          "coding" : [ {
            "system" : "http://hl7.org/fhir/us/carin-bb/CodeSystem/C4BBClaimDiagnosisType",
            "code" : "secondary",
            "display" : "Secondary"
          } ]
        } ]
      }, {
        "sequence" : 4,
        "diagnosisCodeableConcept" : {
          "coding" : [ {
            "system" : "http://hl7.org/fhir/sid/icd-10",
            "code" : "R3333"
          } ]
        },
        "type" : [ {
          "coding" : [ {
            "system" : "http://hl7.org/fhir/us/carin-bb/CodeSystem/C4BBClaimDiagnosisType",
            "code" : "secondary",
            "display" : "Secondary"
          } ]
        } ]
      } ],
      "insurance" : [ {
        "coverage" : {
          "reference" : "Coverage/part-b-567834"
        }
      } ],
      "item" : [ {
        "sequence" : 1,
        "careTeamSequence" : [ 2 ],
        "revenue" : {
          "coding" : [ {
            "system" : "https://bluebutton.cms.gov/resources/variables/rev_cntr",
            "code" : "0023",
            "display" : "Home Health services paid under PPS submitted as TOB 32X and 33X, effective 10/00. This code may appear multiple times on a claim to identify different HIPPS/Home Health Resource Groups (HRG)."
          }, {
            "system" : "https://www.nubc.org/CodeSystem/RevenueCodes",
            "code" : "4"
          }, {
            "system" : "https://bluebutton.cms.gov/resources/variables/rev_cntr_ddctbl_coinsrnc_cd",
            "code" : "4",
            "display" : "No charge or units associated with this revenue center code. (For multiple HCPCS per single revenue center code) For revenue center code 0001, the following MSP override values may be present:"
          } ]
        },
        "productOrService" : {
          "coding" : [ {
            "system" : "https://bluebutton.cms.gov/resources/codesystem/hcpcs",
            "code" : "2GGGG"
          } ]
        },
        "modifier" : [ {
          "coding" : [ {
            "system" : "https://bluebutton.cms.gov/resources/codesystem/hcpcs",
            "code" : "KO"
          } ]
        }, {
          "coding" : [ {
            "system" : "https://bluebutton.cms.gov/resources/variables/rev_cntr_ndc_qty_qlfr_cd",
            "code" : "DD"
          } ]
        } ],
        "servicedDate" : "2015-06-23",
        "locationAddress" : {
          "state" : "UT"
        },
        "quantity" : {
          "value" : 666
        },
        "adjudication" : [ {
          "category" : {
            "coding" : [ {
              "system" : "http://hl7.org/fhir/us/carin-bb/CodeSystem/C4BBAdjudicationDiscriminator",
              "code" : "denialreason",
              "display" : "Denial Reason"
            } ]
          },
          "reason" : {
            "coding" : [ {
              "system" : "https://bluebutton.cms.gov/resources/variables/rev_cntr_1st_ansi_cd",
              "code" : "CO120"
            } ]
          }
        }, {
          "category" : {
            "coding" : [ {
              "system" : "http://terminology.hl7.org/CodeSystem/adjudication",
              "code" : "submitted",
              "display" : "Submitted Amount"
            }, {
              "system" : "https://bluebutton.cms.gov/resources/codesystem/adjudication",
              "code" : "https://bluebutton.cms.gov/resources/variables/rev_cntr_rate_amt",
              "display" : "Revenue Center Rate Amount"
            } ]
          },
          "amount" : {
            "value" : 0.0,
            "currency" : "USD"
          }
        }, {
          "category" : {
            "coding" : [ {
              "system" : "http://terminology.hl7.org/CodeSystem/adjudication",
              "code" : "submitted",
              "display" : "Submitted Amount"
            }, {
              "system" : "https://bluebutton.cms.gov/resources/codesystem/adjudication",
              "code" : "https://bluebutton.cms.gov/resources/variables/rev_cntr_tot_chrg_amt",
              "display" : "Revenue Center Total Charge Amount"
            } ]
          },
          "amount" : {
            "value" : 25.0,
            "currency" : "USD"
          }
        }, {
          "category" : {
            "coding" : [ {
              "system" : "http://hl7.org/fhir/us/carin-bb/CodeSystem/C4BBAdjudication",
              "code" : "noncovered",
              "display" : "Noncovered"
            }, {
              "system" : "https://bluebutton.cms.gov/resources/codesystem/adjudication",
              "code" : "https://bluebutton.cms.gov/resources/variables/rev_cntr_ncvrd_chrg_amt",
              "display" : "Revenue Center Non-Covered Charge Amount"
            } ]
          },
          "amount" : {
            "value" : 24.0,
            "currency" : "USD"
          }
        }, {
          "category" : {
            "coding" : [ {
              "system" : "http://terminology.hl7.org/CodeSystem/adjudication",
              "code" : "submitted",
              "display" : "Submitted Amount"
            }, {
              "system" : "https://bluebutton.cms.gov/resources/codesystem/adjudication",
              "code" : "https://bluebutton.cms.gov/resources/variables/rev_cntr_pmt_amt_amt",
              "display" : "Revenue Center (Medicare) Payment Amount"
            } ]
          },
          "amount" : {
            "value" : 26.0,
            "currency" : "USD"
          }
        } ]
      } ],
      "total" : [ {
        "category" : {
          "coding" : [ {
            "system" : "http://terminology.hl7.org/CodeSystem/adjudication",
            "code" : "submitted",
            "display" : "Submitted Amount"
          }, {
            "system" : "https://bluebutton.cms.gov/resources/codesystem/adjudication",
            "code" : "https://bluebutton.cms.gov/resources/variables/clm_tot_chrg_amt",
            "display" : "Claim Total Charge Amount"
          } ]
        },
        "amount" : {
          "value" : 199.99,
          "currency" : "USD"
        }
      } ],
      "payment" : {
        "amount" : {
          "value" : 188.0,
          "currency" : "USD"
        }
      },
      "benefitBalance" : [ {
        "category" : {
          "coding" : [ {
            "system" : "http://terminology.hl7.org/CodeSystem/ex-benefitcategory",
            "code" : "1",
            "display" : "Medical Care"
          } ]
        },
        "financial" : [ {
          "type" : {
            "coding" : [ {
              "system" : "https://bluebutton.cms.gov/resources/codesystem/benefit-balance",
              "code" : "https://bluebutton.cms.gov/resources/variables/prpayamt",
              "display" : "NCH Primary Payer (if not Medicare) Claim Paid Amount"
            } ]
          },
          "usedMoney" : {
            "value" : 11.0,
            "currency" : "USD"
          }
        } ]
      } ]
    }
  }, {
    "resource" : {
      "resourceType" : "ExplanationOfBenefit",
      "id" : "inpatient-333333222222",
      "meta" : {
        "lastUpdated" : "IGNORED_FIELD",
        "profile" : [ "http://hl7.org/fhir/us/carin-bb/StructureDefinition/C4BB-ExplanationOfBenefit-Inpatient-Institutional" ]
      },
      "contained" : [ {
        "resourceType" : "Organization",
        "id" : "provider-org",
        "meta" : {
          "profile" : [ "http://hl7.org/fhir/us/carin-bb/StructureDefinition/C4BB-Organization" ]
        },
        "identifier" : [ {
          "type" : {
            "coding" : [ {
              "system" : "http://terminology.hl7.org/CodeSystem/v2-0203",
              "code" : "PRN"
            } ]
          },
          "value" : "777776"
        }, {
          "type" : {
            "coding" : [ {
              "system" : "http://hl7.org/fhir/us/carin-bb/CodeSystem/C4BBIdentifierType",
              "code" : "npi"
            } ]
          },
          "system" : "http://hl7.org/fhir/sid/us-npi",
          "value" : "5555553305"
        } ],
        "active" : true
      } ],
      "extension" : [ {
        "url" : "https://bluebutton.cms.gov/resources/variables/nch_near_line_rec_ident_cd",
        "valueCoding" : {
          "system" : "https://bluebutton.cms.gov/resources/variables/nch_near_line_rec_ident_cd",
          "code" : "V",
          "display" : "Part A institutional claim record (inpatient [IP], skilled nursing facility [SNF], hospice [HOS], or home health agency [HHA])"
        }
      }, {
        "url" : "https://bluebutton.cms.gov/resources/variables/ime_op_clm_val_amt",
        "valueMoney" : {
          "value" : 66125.51,
          "currency" : "USD"
        }
      }, {
        "url" : "https://bluebutton.cms.gov/resources/variables/dsh_op_clm_val_amt",
        "valueMoney" : {
          "value" : 25.0,
          "currency" : "USD"
        }
      }, {
        "url" : "https://bluebutton.cms.gov/resources/variables/clm_mdcr_non_pmt_rsn_cd",
        "valueCoding" : {
          "system" : "https://bluebutton.cms.gov/resources/variables/clm_mdcr_non_pmt_rsn_cd",
          "code" : "A",
          "display" : "Covered worker's compensation (Obsolete)"
        }
      }, {
        "url" : "https://bluebutton.cms.gov/resources/variables/clm_srvc_clsfctn_type_cd",
        "valueCoding" : {
          "system" : "https://bluebutton.cms.gov/resources/variables/clm_srvc_clsfctn_type_cd",
          "code" : "1"
        }
      } ],
      "identifier" : [ {
        "type" : {
          "coding" : [ {
            "system" : "http://hl7.org/fhir/us/carin-bb/CodeSystem/C4BBIdentifierType",
            "code" : "uc",
            "display" : "Unique Claim ID"
          } ]
        },
        "system" : "https://bluebutton.cms.gov/resources/variables/clm_id",
        "value" : "333333222222"
      }, {
        "type" : {
          "coding" : [ {
            "system" : "http://hl7.org/fhir/us/carin-bb/CodeSystem/C4BBIdentifierType",
            "code" : "uc",
            "display" : "Unique Claim ID"
          } ]
        },
        "system" : "https://bluebutton.cms.gov/resources/identifier/claim-group",
        "value" : "900"
      } ],
      "status" : "active",
      "type" : {
        "coding" : [ {
          "system" : "https://bluebutton.cms.gov/resources/variables/nch_clm_type_cd",
          "code" : "60",
          "display" : "Inpatient claim"
        }, {
          "system" : "https://bluebutton.cms.gov/resources/codesystem/eob-type",
          "code" : "INPATIENT"
        }, {
          "system" : "http://terminology.hl7.org/CodeSystem/claim-type",
          "code" : "institutional",
          "display" : "Institutional"
        } ]
      },
      "use" : "claim",
      "patient" : {
        "reference" : "Patient/567834"
      },
      "billablePeriod" : {
        "extension" : [ {
          "url" : "https://bluebutton.cms.gov/resources/variables/claim_query_cd",
          "valueCoding" : {
            "system" : "https://bluebutton.cms.gov/resources/variables/claim_query_cd",
            "code" : "3",
            "display" : "Final bill"
          }
        } ],
        "start" : "2016-01-15",
        "end" : "2016-01-27"
      },
      "created" : "IGNORED_FIELD",
      "insurer" : {
        "identifier" : {
          "value" : "CMS"
        }
      },
      "provider" : {
        "reference" : "#provider-org"
      },
      "facility" : {
        "extension" : [ {
          "url" : "https://bluebutton.cms.gov/resources/variables/clm_fac_type_cd",
          "valueCoding" : {
            "system" : "https://bluebutton.cms.gov/resources/variables/clm_fac_type_cd",
            "code" : "1",
            "display" : "Hospital"
          }
        } ]
      },
      "outcome" : "complete",
      "careTeam" : [ {
        "sequence" : 1,
        "provider" : {
          "identifier" : {
            "type" : {
              "coding" : [ {
                "system" : "http://hl7.org/fhir/us/carin-bb/CodeSystem/C4BBIdentifierType",
                "code" : "npi",
                "display" : "National Provider Identifier"
              } ]
            },
            "value" : "161999999"
          }
        },
        "role" : {
          "coding" : [ {
            "system" : "http://hl7.org/fhir/us/carin-bb/CodeSystem/C4BBClaimCareTeamRole",
            "code" : "attending",
            "display" : "Attending"
          } ]
        }
      }, {
        "sequence" : 2,
        "provider" : {
          "identifier" : {
            "type" : {
              "coding" : [ {
                "system" : "http://hl7.org/fhir/us/carin-bb/CodeSystem/C4BBIdentifierType",
                "code" : "npi",
                "display" : "National Provider Identifier"
              } ]
            },
            "value" : "3333444555"
          }
        },
        "role" : {
          "coding" : [ {
            "system" : "http://hl7.org/fhir/us/carin-bb/CodeSystem/C4BBClaimCareTeamRole",
            "code" : "operating",
            "display" : "Operating"
          } ]
        }
      }, {
        "sequence" : 3,
        "provider" : {
          "identifier" : {
            "type" : {
              "coding" : [ {
                "system" : "http://hl7.org/fhir/us/carin-bb/CodeSystem/C4BBIdentifierType",
                "code" : "npi",
                "display" : "National Provider Identifier"
              } ]
            },
            "value" : "161943433"
          }
        },
        "role" : {
          "coding" : [ {
            "system" : "http://hl7.org/fhir/us/carin-bb/CodeSystem/C4BBClaimCareTeamRole",
            "code" : "otheroperating",
            "display" : "Other Operating"
          } ]
        }
      }, {
        "sequence" : 4,
        "provider" : {
          "identifier" : {
            "type" : {
              "coding" : [ {
                "system" : "http://hl7.org/fhir/us/carin-bb/CodeSystem/C4BBIdentifierType",
                "code" : "npi",
                "display" : "National Provider Identifier"
              } ]
            },
            "value" : "345345345"
          }
        },
        "role" : {
          "coding" : [ {
            "system" : "http://hl7.org/fhir/us/carin-bb/CodeSystem/C4BBClaimCareTeamRole",
            "code" : "performing",
            "display" : "Performing provider"
          } ]
        }
      } ],
      "supportingInfo" : [ {
        "sequence" : 1,
        "category" : {
          "coding" : [ {
            "system" : "http://terminology.hl7.org/CodeSystem/claiminformationcategory",
            "code" : "info",
            "display" : "Information"
          }, {
            "system" : "https://bluebutton.cms.gov/resources/codesystem/information",
            "code" : "https://bluebutton.cms.gov/resources/variables/nch_ptnt_stus_ind_cd",
            "display" : "NCH Patient Status Indicator Code"
          } ]
        },
        "code" : {
          "coding" : [ {
            "system" : "https://bluebutton.cms.gov/resources/variables/nch_ptnt_stus_ind_cd",
            "code" : "A",
            "display" : "Discharged"
          } ]
        }
      }, {
        "sequence" : 2,
        "category" : {
          "coding" : [ {
            "system" : "http://hl7.org/fhir/us/carin-bb/CodeSystem/C4BBSupportingInfoType",
            "code" : "admissionperiod",
            "display" : "Admission Period"
          } ]
        },
        "timingPeriod" : {
          "start" : "2016-01-15",
          "end" : "2016-01-27"
        }
      }, {
        "sequence" : 3,
        "category" : {
          "coding" : [ {
            "system" : "http://terminology.hl7.org/CodeSystem/claiminformationcategory",
            "code" : "info",
            "display" : "Information"
          }, {
            "system" : "https://bluebutton.cms.gov/resources/codesystem/information",
            "code" : "https://bluebutton.cms.gov/resources/variables/clm_ip_admsn_type_cd",
            "display" : "Claim Inpatient Admission Type Code"
          } ]
        },
        "code" : {
          "coding" : [ {
            "system" : "https://bluebutton.cms.gov/resources/variables/clm_ip_admsn_type_cd",
            "code" : "1",
            "display" : "Emergency - The patient required immediate medical intervention as a result of severe, life threatening, or potentially disabling conditions. Generally, the patient was admitted through the emergency room."
          } ]
        }
      }, {
        "sequence" : 4,
        "category" : {
          "coding" : [ {
            "system" : "http://terminology.hl7.org/CodeSystem/claiminformationcategory",
            "code" : "info",
            "display" : "Information"
          }, {
            "system" : "https://bluebutton.cms.gov/resources/codesystem/information",
            "code" : "https://bluebutton.cms.gov/resources/variables/clm_src_ip_admsn_cd",
            "display" : "Claim Source Inpatient Admission Code"
          } ]
        },
        "code" : {
          "coding" : [ {
            "system" : "https://bluebutton.cms.gov/resources/variables/clm_src_ip_admsn_cd",
            "code" : "4"
          } ]
        }
      }, {
        "sequence" : 5,
        "category" : {
          "coding" : [ {
            "system" : "http://terminology.hl7.org/CodeSystem/claiminformationcategory",
            "code" : "info",
            "display" : "Information"
          }, {
            "system" : "https://bluebutton.cms.gov/resources/codesystem/information",
            "code" : "https://bluebutton.cms.gov/resources/variables/clm_drg_cd",
            "display" : "Claim Diagnosis Related Group Code (or MS-DRG Code)"
          } ]
        },
        "code" : {
          "coding" : [ {
            "system" : "https://bluebutton.cms.gov/resources/variables/clm_drg_cd",
            "code" : "695"
          } ]
        }
      }, {
        "sequence" : 6,
        "category" : {
          "coding" : [ {
            "system" : "http://terminology.hl7.org/CodeSystem/claiminformationcategory",
            "code" : "info",
            "display" : "Information"
          }, {
            "system" : "https://bluebutton.cms.gov/resources/codesystem/information",
            "code" : "https://bluebutton.cms.gov/resources/variables/nch_blood_pnts_frnshd_qty",
            "display" : "NCH Blood Pints Furnished Quantity"
          } ]
        },
        "valueQuantity" : {
          "value" : 19,
          "unit" : "pint",
          "system" : "http://unitsofmeasure.org",
          "code" : "[pt_us]"
        }
      }, {
        "sequence" : 7,
        "category" : {
          "coding" : [ {
            "system" : "http://terminology.hl7.org/CodeSystem/claiminformationcategory",
            "code" : "info",
            "display" : "Information"
          }, {
            "system" : "https://bluebutton.cms.gov/resources/codesystem/information",
            "code" : "https://bluebutton.cms.gov/resources/variables/clm_mco_pd_sw",
            "display" : "Claim MCO Paid Switch"
          } ]
        },
        "code" : {
          "coding" : [ {
            "system" : "https://bluebutton.cms.gov/resources/variables/clm_mco_pd_sw",
            "code" : "0",
            "display" : "No managed care organization (MCO) payment"
          } ]
        }
      }, {
        "sequence" : 8,
        "category" : {
          "coding" : [ {
            "system" : "http://hl7.org/fhir/us/carin-bb/CodeSystem/C4BBSupportingInfoType",
            "code" : "typeofbill",
            "display" : "Type of Bill"
          } ]
        },
        "code" : {
          "coding" : [ {
            "system" : "https://bluebutton.cms.gov/resources/variables/clm_freq_cd",
            "code" : "1",
            "display" : "Admit thru discharge claim"
          } ]
        }
      }, {
        "sequence" : 9,
        "category" : {
          "coding" : [ {
            "system" : "http://hl7.org/fhir/us/carin-bb/CodeSystem/C4BBSupportingInfoType",
            "code" : "discharge-status",
            "display" : "Discharge Status"
          } ]
        },
        "code" : {
          "coding" : [ {
            "system" : "https://bluebutton.cms.gov/resources/variables/ptnt_dschrg_stus_cd",
            "code" : "1"
          } ]
        }
      }, {
        "sequence" : 10,
        "category" : {
          "coding" : [ {
            "system" : "http://terminology.hl7.org/CodeSystem/claiminformationcategory",
            "code" : "info",
            "display" : "Information"
          }, {
            "system" : "https://bluebutton.cms.gov/resources/codesystem/information",
            "code" : "https://bluebutton.cms.gov/resources/variables/nch_prmry_pyr_cd",
            "display" : "NCH Primary Payer Code (if not Medicare)"
          } ]
        },
        "code" : {
          "coding" : [ {
            "system" : "https://bluebutton.cms.gov/resources/variables/nch_prmry_pyr_cd",
            "code" : "A",
            "display" : "Employer group health plan (EGHP) insurance for an aged beneficiary"
          } ]
        }
      }, {
        "sequence" : 11,
        "category" : {
          "coding" : [ {
            "system" : "http://hl7.org/fhir/us/carin-bb/CodeSystem/C4BBSupportingInfoType",
            "code" : "clmrecvddate",
            "display" : "Claim Received Date"
          }, {
            "system" : "https://bluebutton.cms.gov/resources/codesystem/information",
            "code" : "https://bluebutton.cms.gov/resources/variables/nch_wkly_proc_dt",
            "display" : "NCH Weekly Claim Processing Date"
          } ]
        },
        "timingDate" : "2016-02-26"
      } ],
      "diagnosis" : [ {
        "sequence" : 1,
        "diagnosisCodeableConcept" : {
          "coding" : [ {
            "system" : "http://hl7.org/fhir/sid/icd-10",
            "code" : "R4444"
          } ]
        },
        "type" : [ {
          "coding" : [ {
            "system" : "http://terminology.hl7.org/CodeSystem/ex-diagnosistype",
            "code" : "admitting",
            "display" : "Admitting Diagnosis"
          } ]
        } ]
      }, {
        "extension" : [ {
          "url" : "https://bluebutton.cms.gov/resources/variables/clm_poa_ind_sw1",
          "valueCoding" : {
            "system" : "https://bluebutton.cms.gov/resources/variables/clm_poa_ind_sw1",
            "code" : "Y",
            "display" : "Diagnosis was present at the time of admission (POA)"
          }
        } ],
        "sequence" : 2,
        "diagnosisCodeableConcept" : {
          "coding" : [ {
            "system" : "http://hl7.org/fhir/sid/icd-10",
            "code" : "R5555"
          } ]
        },
        "type" : [ {
          "coding" : [ {
            "system" : "http://terminology.hl7.org/CodeSystem/ex-diagnosistype",
            "code" : "principal",
            "display" : "Principal Diagnosis"
          } ]
        } ]
      }, {
        "extension" : [ {
          "url" : "https://bluebutton.cms.gov/resources/variables/clm_poa_ind_sw2",
          "valueCoding" : {
            "system" : "https://bluebutton.cms.gov/resources/variables/clm_poa_ind_sw2",
            "code" : "N",
            "display" : "Diagnosis was not present at the time of admission"
          }
        } ],
        "sequence" : 3,
        "diagnosisCodeableConcept" : {
          "coding" : [ {
            "system" : "http://hl7.org/fhir/sid/icd-10",
            "code" : "A7777"
          } ]
        },
        "type" : [ {
          "coding" : [ {
            "system" : "http://hl7.org/fhir/us/carin-bb/CodeSystem/C4BBClaimDiagnosisType",
            "code" : "other",
            "display" : "Other"
          } ]
        } ]
      }, {
        "extension" : [ {
          "url" : "https://bluebutton.cms.gov/resources/variables/clm_poa_ind_sw3",
          "valueCoding" : {
            "system" : "https://bluebutton.cms.gov/resources/variables/clm_poa_ind_sw3",
            "code" : "N",
            "display" : "Diagnosis was not present at the time of admission"
          }
        } ],
        "sequence" : 4,
        "diagnosisCodeableConcept" : {
          "coding" : [ {
            "system" : "http://hl7.org/fhir/sid/icd-10",
            "code" : "R8888"
          } ]
        },
        "type" : [ {
          "coding" : [ {
            "system" : "http://hl7.org/fhir/us/carin-bb/CodeSystem/C4BBClaimDiagnosisType",
            "code" : "other",
            "display" : "Other"
          } ]
        } ]
      }, {
        "extension" : [ {
          "url" : "https://bluebutton.cms.gov/resources/variables/clm_poa_ind_sw4",
          "valueCoding" : {
            "system" : "https://bluebutton.cms.gov/resources/variables/clm_poa_ind_sw4",
            "code" : "N",
            "display" : "Diagnosis was not present at the time of admission"
          }
        } ],
        "sequence" : 5,
        "diagnosisCodeableConcept" : {
          "coding" : [ {
            "system" : "http://hl7.org/fhir/sid/icd-10",
            "code" : "K71234"
          } ]
        },
        "type" : [ {
          "coding" : [ {
            "system" : "http://hl7.org/fhir/us/carin-bb/CodeSystem/C4BBClaimDiagnosisType",
            "code" : "other",
            "display" : "Other"
          } ]
        } ]
      }, {
        "extension" : [ {
          "url" : "https://bluebutton.cms.gov/resources/variables/clm_poa_ind_sw5",
          "valueCoding" : {
            "system" : "https://bluebutton.cms.gov/resources/variables/clm_poa_ind_sw5",
            "code" : "N",
            "display" : "Diagnosis was not present at the time of admission"
          }
        } ],
        "sequence" : 6,
        "diagnosisCodeableConcept" : {
          "coding" : [ {
            "system" : "http://hl7.org/fhir/sid/icd-10",
            "code" : "7840",
            "display" : "HEADACHE"
          } ]
        },
        "type" : [ {
          "coding" : [ {
            "system" : "http://hl7.org/fhir/us/carin-bb/CodeSystem/C4BBClaimDiagnosisType",
            "code" : "other",
            "display" : "Other"
          } ]
        } ]
      }, {
        "extension" : [ {
          "url" : "https://bluebutton.cms.gov/resources/variables/clm_e_poa_ind_sw1",
          "valueCoding" : {
            "system" : "https://bluebutton.cms.gov/resources/variables/clm_e_poa_ind_sw1",
            "code" : "N",
            "display" : "Diagnosis was not present at the time of admission"
          }
        } ],
        "sequence" : 7,
        "diagnosisCodeableConcept" : {
          "coding" : [ {
            "system" : "http://hl7.org/fhir/sid/icd-10",
            "code" : "R2222"
          } ]
        },
        "type" : [ {
          "coding" : [ {
            "system" : "http://hl7.org/fhir/us/carin-bb/CodeSystem/C4BBClaimDiagnosisType",
            "code" : "externalcauseofinjury",
            "display" : "External Cause of Injury"
          } ]
        } ]
      }, {
        "extension" : [ {
          "url" : "https://bluebutton.cms.gov/resources/variables/clm_e_poa_ind_sw2",
          "valueCoding" : {
            "system" : "https://bluebutton.cms.gov/resources/variables/clm_e_poa_ind_sw2",
            "code" : "Y",
            "display" : "Diagnosis was present at the time of admission (POA)"
          }
        } ],
        "sequence" : 8,
        "diagnosisCodeableConcept" : {
          "coding" : [ {
            "system" : "http://hl7.org/fhir/sid/icd-10",
            "code" : "R3333"
          } ]
        },
        "type" : [ {
          "coding" : [ {
            "system" : "http://hl7.org/fhir/us/carin-bb/CodeSystem/C4BBClaimDiagnosisType",
            "code" : "externalcauseofinjury",
            "display" : "External Cause of Injury"
          } ]
        } ]
      } ],
      "procedure" : [ {
        "sequence" : 1,
        "date" : "2016-01-16T00:00:00+00:00",
        "procedureCodeableConcept" : {
          "coding" : [ {
            "system" : "http://hl7.org/fhir/sid/icd-10",
            "code" : "0TCDDEE"
          } ]
        }
      }, {
        "sequence" : 2,
        "date" : "2016-01-16T00:00:00+00:00",
        "procedureCodeableConcept" : {
          "coding" : [ {
            "system" : "http://hl7.org/fhir/sid/icd-10",
            "code" : "302DDAA"
          } ]
        }
      }, {
        "sequence" : 3,
        "date" : "2016-01-15T00:00:00+00:00",
        "procedureCodeableConcept" : {
          "coding" : [ {
            "system" : "http://hl7.org/fhir/sid/icd-10",
            "code" : "302ZZXX"
          } ]
        }
      }, {
        "sequence" : 4,
        "date" : "2016-01-17T00:00:00+00:00",
        "procedureCodeableConcept" : {
          "coding" : [ {
            "system" : "http://hl7.org/fhir/sid/icd-10",
            "code" : "5566AAA"
          } ]
        }
      }, {
        "sequence" : 5,
        "date" : "2016-01-24T00:00:00+00:00",
        "procedureCodeableConcept" : {
          "coding" : [ {
            "system" : "http://hl7.org/fhir/sid/icd-10",
            "code" : "6677BBB"
          } ]
        }
      }, {
        "sequence" : 6,
        "date" : "2016-01-24T00:00:00+00:00",
        "procedureCodeableConcept" : {
          "coding" : [ {
            "system" : "http://hl7.org/fhir/sid/icd-10",
            "code" : "8109",
            "display" : "REFUSION OF SPINE"
          } ]
        }
      } ],
      "insurance" : [ {
        "coverage" : {
          "reference" : "Coverage/part-a-567834"
        }
      } ],
      "item" : [ {
        "sequence" : 1,
        "careTeamSequence" : [ 4 ],
        "revenue" : {
          "coding" : [ {
            "system" : "https://bluebutton.cms.gov/resources/variables/rev_cntr",
            "code" : "6767"
          }, {
            "system" : "https://www.nubc.org/CodeSystem/RevenueCodes",
            "code" : "A"
          }, {
            "system" : "https://bluebutton.cms.gov/resources/variables/rev_cntr_ddctbl_coinsrnc_cd",
            "code" : "A"
          } ]
        },
        "productOrService" : {
          "coding" : [ {
            "system" : "https://bluebutton.cms.gov/resources/variables/hcpcs_cd",
            "code" : "M55"
          }, {
            "system" : "https://bluebutton.cms.gov/resources/codesystem/hcpcs",
            "code" : "M55"
          } ]
        },
        "modifier" : [ {
          "coding" : [ {
            "system" : "https://bluebutton.cms.gov/resources/variables/rev_cntr_ndc_qty_qlfr_cd",
            "code" : "GG"
          } ]
        } ],
        "locationAddress" : {
          "state" : "IA"
        },
        "quantity" : {
          "value" : 77
        },
        "adjudication" : [ {
          "category" : {
            "coding" : [ {
              "system" : "http://terminology.hl7.org/CodeSystem/adjudication",
              "code" : "submitted",
              "display" : "Submitted Amount"
            }, {
              "system" : "https://bluebutton.cms.gov/resources/codesystem/adjudication",
              "code" : "https://bluebutton.cms.gov/resources/variables/rev_cntr_rate_amt",
              "display" : "Revenue Center Rate Amount"
            } ]
          },
          "amount" : {
            "value" : 0.0,
            "currency" : "USD"
          }
        }, {
          "category" : {
            "coding" : [ {
              "system" : "http://terminology.hl7.org/CodeSystem/adjudication",
              "code" : "submitted",
              "display" : "Submitted Amount"
            }, {
              "system" : "https://bluebutton.cms.gov/resources/codesystem/adjudication",
              "code" : "https://bluebutton.cms.gov/resources/variables/rev_cntr_tot_chrg_amt",
              "display" : "Revenue Center Total Charge Amount"
            } ]
          },
          "amount" : {
            "value" : 84888.88,
            "currency" : "USD"
          }
        }, {
          "category" : {
            "coding" : [ {
              "system" : "http://hl7.org/fhir/us/carin-bb/CodeSystem/C4BBAdjudication",
              "code" : "noncovered",
              "display" : "Noncovered"
            }, {
              "system" : "https://bluebutton.cms.gov/resources/codesystem/adjudication",
              "code" : "https://bluebutton.cms.gov/resources/variables/rev_cntr_ncvrd_chrg_amt",
              "display" : "Revenue Center Non-Covered Charge Amount"
            } ]
          },
          "amount" : {
            "value" : 3699.0,
            "currency" : "USD"
          }
        } ]
      } ],
      "total" : [ {
        "category" : {
          "coding" : [ {
            "system" : "http://terminology.hl7.org/CodeSystem/adjudication",
            "code" : "submitted",
            "display" : "Submitted Amount"
          }, {
            "system" : "https://bluebutton.cms.gov/resources/codesystem/adjudication",
            "code" : "https://bluebutton.cms.gov/resources/variables/clm_tot_chrg_amt",
            "display" : "Claim Total Charge Amount"
          } ]
        },
        "amount" : {
          "value" : 84999.37,
          "currency" : "USD"
        }
      } ],
      "payment" : {
        "amount" : {
          "value" : 7699.48,
          "currency" : "USD"
        }
      },
      "benefitBalance" : [ {
        "category" : {
          "coding" : [ {
            "system" : "http://terminology.hl7.org/CodeSystem/ex-benefitcategory",
            "code" : "1",
            "display" : "Medical Care"
          } ]
        },
        "financial" : [ {
          "type" : {
            "coding" : [ {
              "system" : "https://bluebutton.cms.gov/resources/codesystem/benefit-balance",
              "code" : "https://bluebutton.cms.gov/resources/variables/clm_pass_thru_per_diem_amt",
              "display" : "Claim Pass Thru Per Diem Amount"
            } ]
          },
          "usedMoney" : {
            "value" : 10.0,
            "currency" : "USD"
          }
        }, {
          "type" : {
            "coding" : [ {
              "system" : "https://bluebutton.cms.gov/resources/codesystem/benefit-balance",
              "code" : "https://bluebutton.cms.gov/resources/variables/nch_profnl_cmpnt_chrg_amt",
              "display" : "Professional Component Charge Amount"
            } ]
          },
          "usedMoney" : {
            "value" : 4.0,
            "currency" : "USD"
          }
        }, {
          "type" : {
            "coding" : [ {
              "system" : "https://bluebutton.cms.gov/resources/codesystem/benefit-balance",
              "code" : "https://bluebutton.cms.gov/resources/variables/clm_tot_pps_cptl_amt",
              "display" : "Claim Total PPS Capital Amount"
            } ]
          },
          "usedMoney" : {
            "value" : 646.23,
            "currency" : "USD"
          }
        }, {
          "type" : {
            "coding" : [ {
              "system" : "https://bluebutton.cms.gov/resources/codesystem/benefit-balance",
              "code" : "https://bluebutton.cms.gov/resources/variables/bene_tot_coinsrnc_days_cnt",
              "display" : "Beneficiary Total Coinsurance Days Count"
            } ]
          },
          "usedUnsignedInt" : 0
        }, {
          "type" : {
            "coding" : [ {
              "system" : "https://bluebutton.cms.gov/resources/codesystem/benefit-balance",
              "code" : "https://bluebutton.cms.gov/resources/variables/clm_non_utlztn_days_cnt",
              "display" : "Claim Medicare Non Utilization Days Count"
            } ]
          },
          "usedUnsignedInt" : 0
        }, {
          "type" : {
            "coding" : [ {
              "system" : "https://bluebutton.cms.gov/resources/codesystem/benefit-balance",
              "code" : "https://bluebutton.cms.gov/resources/variables/nch_bene_ip_ddctbl_amt",
              "display" : "NCH Beneficiary Inpatient (or other Part A) Deductible Amount"
            } ]
          },
          "usedMoney" : {
            "value" : 112.0,
            "currency" : "USD"
          }
        }, {
          "type" : {
            "coding" : [ {
              "system" : "https://bluebutton.cms.gov/resources/codesystem/benefit-balance",
              "code" : "https://bluebutton.cms.gov/resources/variables/nch_bene_pta_coinsrnc_lblty_amt",
              "display" : "NCH Beneficiary Part A Coinsurance Liability Amount"
            } ]
          },
          "usedMoney" : {
            "value" : 5.0,
            "currency" : "USD"
          }
        }, {
          "type" : {
            "coding" : [ {
              "system" : "https://bluebutton.cms.gov/resources/codesystem/benefit-balance",
              "code" : "https://bluebutton.cms.gov/resources/variables/nch_ip_ncvrd_chrg_amt",
              "display" : "NCH Inpatient(or other Part A) Non-covered Charge Amount"
            } ]
          },
          "usedMoney" : {
            "value" : 33.0,
            "currency" : "USD"
          }
        }, {
          "type" : {
            "coding" : [ {
              "system" : "https://bluebutton.cms.gov/resources/codesystem/benefit-balance",
              "code" : "https://bluebutton.cms.gov/resources/variables/nch_ip_tot_ddctn_amt",
              "display" : "NCH Inpatient (or other Part A) Total Deductible/Coinsurance Amount"
            } ]
          },
          "usedMoney" : {
            "value" : 14.0,
            "currency" : "USD"
          }
        }, {
          "type" : {
            "coding" : [ {
              "system" : "https://bluebutton.cms.gov/resources/codesystem/benefit-balance",
              "code" : "https://bluebutton.cms.gov/resources/variables/clm_pps_cptl_dsprprtnt_shr_amt",
              "display" : "Claim PPS Capital Disproportionate Share Amount"
            } ]
          },
          "usedMoney" : {
            "value" : 25.09,
            "currency" : "USD"
          }
        }, {
          "type" : {
            "coding" : [ {
              "system" : "https://bluebutton.cms.gov/resources/codesystem/benefit-balance",
              "code" : "https://bluebutton.cms.gov/resources/variables/clm_pps_cptl_excptn_amt",
              "display" : "Claim PPS Capital Exception Amount"
            } ]
          },
          "usedMoney" : {
            "value" : 0.0,
            "currency" : "USD"
          }
        }, {
          "type" : {
            "coding" : [ {
              "system" : "https://bluebutton.cms.gov/resources/codesystem/benefit-balance",
              "code" : "https://bluebutton.cms.gov/resources/variables/clm_pps_cptl_fsp_amt",
              "display" : "Claim PPS Capital Federal Specific Portion (FSP) Amount"
            } ]
          },
          "usedMoney" : {
            "value" : 552.56,
            "currency" : "USD"
          }
        }, {
          "type" : {
            "coding" : [ {
              "system" : "https://bluebutton.cms.gov/resources/codesystem/benefit-balance",
              "code" : "https://bluebutton.cms.gov/resources/variables/clm_pps_cptl_ime_amt",
              "display" : "Claim PPS Capital Indirect Medical Education (IME) Amount"
            } ]
          },
          "usedMoney" : {
            "value" : 68.58,
            "currency" : "USD"
          }
        }, {
          "type" : {
            "coding" : [ {
              "system" : "https://bluebutton.cms.gov/resources/codesystem/benefit-balance",
              "code" : "https://bluebutton.cms.gov/resources/variables/clm_pps_cptl_outlier_amt",
              "display" : "Claim PPS Capital Outlier Amount"
            } ]
          },
          "usedMoney" : {
            "value" : 0.0,
            "currency" : "USD"
          }
        }, {
          "type" : {
            "coding" : [ {
              "system" : "https://bluebutton.cms.gov/resources/codesystem/benefit-balance",
              "code" : "https://bluebutton.cms.gov/resources/variables/clm_pps_old_cptl_hld_hrmls_amt",
              "display" : "Claim PPS Old Capital Hold Harmless Amount"
            } ]
          },
          "usedMoney" : {
            "value" : 0.0,
            "currency" : "USD"
          }
        }, {
          "type" : {
            "coding" : [ {
              "system" : "https://bluebutton.cms.gov/resources/codesystem/benefit-balance",
              "code" : "https://bluebutton.cms.gov/resources/variables/nch_drg_outlier_aprvd_pmt_amt",
              "display" : "NCH DRG Outlier Approved Payment Amount"
            } ]
          },
          "usedMoney" : {
            "value" : 23.99,
            "currency" : "USD"
          }
        }, {
          "type" : {
            "coding" : [ {
              "system" : "https://bluebutton.cms.gov/resources/codesystem/benefit-balance",
              "code" : "https://bluebutton.cms.gov/resources/variables/nch_bene_blood_ddctbl_lblty_am",
              "display" : "NCH Beneficiary Blood Deductible Liability Amount"
            } ]
          },
          "usedMoney" : {
            "value" : 6.0,
            "currency" : "USD"
          }
        }, {
          "type" : {
            "coding" : [ {
              "system" : "https://bluebutton.cms.gov/resources/codesystem/benefit-balance",
              "code" : "https://bluebutton.cms.gov/resources/variables/prpayamt",
              "display" : "NCH Primary Payer (if not Medicare) Claim Paid Amount"
            } ]
          },
          "usedMoney" : {
            "value" : 11.0,
            "currency" : "USD"
          }
        }, {
          "type" : {
            "coding" : [ {
              "system" : "https://bluebutton.cms.gov/resources/codesystem/benefit-balance",
              "code" : "https://bluebutton.cms.gov/resources/variables/clm_utlztn_day_cnt",
              "display" : "Claim Medicare Utilization Day Count"
            } ]
          },
          "usedUnsignedInt" : 12
        }, {
          "type" : {
            "coding" : [ {
              "system" : "https://bluebutton.cms.gov/resources/codesystem/benefit-balance",
              "code" : "https://bluebutton.cms.gov/resources/variables/clm_pps_cptl_drg_wt_num",
              "display" : "Claim PPS Capital DRG Weight Number"
            } ]
          },
          "usedUnsignedInt" : 1
        }, {
          "type" : {
            "coding" : [ {
              "system" : "https://bluebutton.cms.gov/resources/codesystem/benefit-balance",
              "code" : "https://bluebutton.cms.gov/resources/variables/bene_lrd_used_cnt",
              "display" : "Beneficiary Medicare Lifetime Reserve Days (LRD) Used Count"
            } ]
          },
          "usedUnsignedInt" : 0
        } ]
      } ]
    }
  }, {
    "resource" : {
      "resourceType" : "ExplanationOfBenefit",
      "id" : "snf-777777777",
      "meta" : {
        "lastUpdated" : "IGNORED_FIELD",
        "profile" : [ "http://hl7.org/fhir/us/carin-bb/StructureDefinition/C4BB-ExplanationOfBenefit-Inpatient-Institutional" ]
      },
      "contained" : [ {
        "resourceType" : "Organization",
        "id" : "provider-org",
        "meta" : {
          "profile" : [ "http://hl7.org/fhir/us/carin-bb/StructureDefinition/C4BB-Organization" ]
        },
        "identifier" : [ {
          "type" : {
            "coding" : [ {
              "system" : "http://terminology.hl7.org/CodeSystem/v2-0203",
              "code" : "PRN"
            } ]
          },
          "value" : "299999"
        }, {
          "type" : {
            "coding" : [ {
              "system" : "http://hl7.org/fhir/us/carin-bb/CodeSystem/C4BBIdentifierType",
              "code" : "npi"
            } ]
          },
          "system" : "http://hl7.org/fhir/sid/us-npi",
          "value" : "1111111111"
        } ],
        "active" : true
      } ],
      "extension" : [ {
        "url" : "https://bluebutton.cms.gov/resources/variables/nch_near_line_rec_ident_cd",
        "valueCoding" : {
          "system" : "https://bluebutton.cms.gov/resources/variables/nch_near_line_rec_ident_cd",
          "code" : "V",
          "display" : "Part A institutional claim record (inpatient [IP], skilled nursing facility [SNF], hospice [HOS], or home health agency [HHA])"
        }
      }, {
        "url" : "https://bluebutton.cms.gov/resources/variables/clm_mdcr_non_pmt_rsn_cd",
        "valueCoding" : {
          "system" : "https://bluebutton.cms.gov/resources/variables/clm_mdcr_non_pmt_rsn_cd",
          "code" : "B",
          "display" : "Benefit exhausted"
        }
      }, {
        "url" : "https://bluebutton.cms.gov/resources/variables/clm_srvc_clsfctn_type_cd",
        "valueCoding" : {
          "system" : "https://bluebutton.cms.gov/resources/variables/clm_srvc_clsfctn_type_cd",
          "code" : "1"
        }
      } ],
      "identifier" : [ {
        "type" : {
          "coding" : [ {
            "system" : "http://hl7.org/fhir/us/carin-bb/CodeSystem/C4BBIdentifierType",
            "code" : "uc",
            "display" : "Unique Claim ID"
          } ]
        },
        "system" : "https://bluebutton.cms.gov/resources/variables/clm_id",
        "value" : "777777777"
      }, {
        "type" : {
          "coding" : [ {
            "system" : "http://hl7.org/fhir/us/carin-bb/CodeSystem/C4BBIdentifierType",
            "code" : "uc",
            "display" : "Unique Claim ID"
          } ]
        },
        "system" : "https://bluebutton.cms.gov/resources/identifier/claim-group",
        "value" : "900"
      } ],
      "status" : "active",
      "type" : {
        "coding" : [ {
          "system" : "https://bluebutton.cms.gov/resources/variables/nch_clm_type_cd",
          "code" : "20",
          "display" : "Non swing bed Skilled Nursing Facility (SNF) claim"
        }, {
          "system" : "https://bluebutton.cms.gov/resources/codesystem/eob-type",
          "code" : "SNF"
        }, {
          "system" : "http://terminology.hl7.org/CodeSystem/claim-type",
          "code" : "institutional",
          "display" : "Institutional"
        } ]
      },
      "use" : "claim",
      "patient" : {
        "reference" : "Patient/567834"
      },
      "billablePeriod" : {
        "extension" : [ {
          "url" : "https://bluebutton.cms.gov/resources/variables/claim_query_cd",
          "valueCoding" : {
            "system" : "https://bluebutton.cms.gov/resources/variables/claim_query_cd",
            "code" : "3",
            "display" : "Final bill"
          }
        } ],
        "start" : "2013-12-01",
        "end" : "2013-12-18"
      },
      "created" : "IGNORED_FIELD",
      "insurer" : {
        "identifier" : {
          "value" : "CMS"
        }
      },
      "provider" : {
        "reference" : "#provider-org"
      },
      "facility" : {
        "extension" : [ {
          "url" : "https://bluebutton.cms.gov/resources/variables/clm_fac_type_cd",
          "valueCoding" : {
            "system" : "https://bluebutton.cms.gov/resources/variables/clm_fac_type_cd",
            "code" : "2",
            "display" : "Skilled Nursing Facility (SNF)"
          }
        } ]
      },
      "outcome" : "complete",
      "careTeam" : [ {
        "sequence" : 1,
        "provider" : {
          "identifier" : {
            "type" : {
              "coding" : [ {
                "system" : "http://hl7.org/fhir/us/carin-bb/CodeSystem/C4BBIdentifierType",
                "code" : "npi",
                "display" : "National Provider Identifier"
              } ]
            },
            "value" : "2222222222"
          }
        },
        "role" : {
          "coding" : [ {
            "system" : "http://hl7.org/fhir/us/carin-bb/CodeSystem/C4BBClaimCareTeamRole",
            "code" : "attending",
            "display" : "Attending"
          } ]
        }
      }, {
        "sequence" : 2,
        "provider" : {
          "identifier" : {
            "type" : {
              "coding" : [ {
                "system" : "http://hl7.org/fhir/us/carin-bb/CodeSystem/C4BBIdentifierType",
                "code" : "npi",
                "display" : "National Provider Identifier"
              } ]
            },
            "value" : "3333333333"
          }
        },
        "role" : {
          "coding" : [ {
            "system" : "http://hl7.org/fhir/us/carin-bb/CodeSystem/C4BBClaimCareTeamRole",
            "code" : "operating",
            "display" : "Operating"
          } ]
        }
      }, {
        "sequence" : 3,
        "provider" : {
          "identifier" : {
            "type" : {
              "coding" : [ {
                "system" : "http://hl7.org/fhir/us/carin-bb/CodeSystem/C4BBIdentifierType",
                "code" : "npi",
                "display" : "National Provider Identifier"
              } ]
            },
            "value" : "4444444444"
          }
        },
        "role" : {
          "coding" : [ {
            "system" : "http://hl7.org/fhir/us/carin-bb/CodeSystem/C4BBClaimCareTeamRole",
            "code" : "otheroperating",
            "display" : "Other Operating"
          } ]
        }
      }, {
        "sequence" : 4,
        "provider" : {
          "identifier" : {
            "type" : {
              "coding" : [ {
                "system" : "http://hl7.org/fhir/us/carin-bb/CodeSystem/C4BBIdentifierType",
                "code" : "npi",
                "display" : "National Provider Identifier"
              } ]
            },
            "value" : "345345345"
          }
        },
        "role" : {
          "coding" : [ {
            "system" : "http://hl7.org/fhir/us/carin-bb/CodeSystem/C4BBClaimCareTeamRole",
            "code" : "performing",
            "display" : "Performing provider"
          } ]
        }
      } ],
      "supportingInfo" : [ {
        "sequence" : 1,
        "category" : {
          "coding" : [ {
            "system" : "http://hl7.org/fhir/us/carin-bb/CodeSystem/C4BBSupportingInfoType",
            "code" : "clmrecvddate",
            "display" : "Claim Received Date"
          }, {
            "system" : "https://bluebutton.cms.gov/resources/codesystem/information",
            "code" : "https://bluebutton.cms.gov/resources/variables/nch_wkly_proc_dt",
            "display" : "NCH Weekly Claim Processing Date"
          } ]
        },
        "timingDate" : "2014-02-14"
      }, {
        "sequence" : 2,
        "category" : {
          "coding" : [ {
            "system" : "http://terminology.hl7.org/CodeSystem/claiminformationcategory",
            "code" : "info",
            "display" : "Information"
          }, {
            "system" : "https://bluebutton.cms.gov/resources/codesystem/information",
            "code" : "https://bluebutton.cms.gov/resources/variables/clm_ip_admsn_type_cd",
            "display" : "Claim Inpatient Admission Type Code"
          } ]
        },
        "code" : {
          "coding" : [ {
            "system" : "https://bluebutton.cms.gov/resources/variables/clm_ip_admsn_type_cd",
            "code" : "3",
            "display" : "Elective - The patient's condition permitted adequate time to schedule the availability of suitable accommodations."
          } ]
        }
      }, {
        "sequence" : 3,
        "category" : {
          "coding" : [ {
            "system" : "http://terminology.hl7.org/CodeSystem/claiminformationcategory",
            "code" : "info",
            "display" : "Information"
          }, {
            "system" : "https://bluebutton.cms.gov/resources/codesystem/information",
            "code" : "https://bluebutton.cms.gov/resources/variables/clm_src_ip_admsn_cd",
            "display" : "Claim Source Inpatient Admission Code"
          } ]
        },
        "code" : {
          "coding" : [ {
            "system" : "https://bluebutton.cms.gov/resources/variables/clm_src_ip_admsn_cd",
            "code" : "4"
          } ]
        }
      }, {
        "sequence" : 4,
        "category" : {
          "coding" : [ {
            "system" : "http://terminology.hl7.org/CodeSystem/claiminformationcategory",
            "code" : "info",
            "display" : "Information"
          }, {
            "system" : "https://bluebutton.cms.gov/resources/codesystem/information",
            "code" : "https://bluebutton.cms.gov/resources/variables/nch_vrfd_ncvrd_stay_from_dt",
            "display" : "NCH Verified Non-covered Stay From Date"
          } ]
        },
        "timingPeriod" : {
          "start" : "2002-01-11",
          "end" : "2002-01-21"
        }
      }, {
        "sequence" : 5,
        "category" : {
          "coding" : [ {
            "system" : "http://terminology.hl7.org/CodeSystem/claiminformationcategory",
            "code" : "info",
            "display" : "Information"
          }, {
            "system" : "https://bluebutton.cms.gov/resources/codesystem/information",
            "code" : "https://bluebutton.cms.gov/resources/variables/nch_bene_mdcr_bnfts_exhtd_dt_i",
            "display" : "NCH Beneficiary Medicare Benefits Exhausted Date"
          } ]
        },
        "timingDate" : "2002-01-31"
      }, {
        "sequence" : 6,
        "category" : {
          "coding" : [ {
            "system" : "http://terminology.hl7.org/CodeSystem/claiminformationcategory",
            "code" : "info",
            "display" : "Information"
          }, {
            "system" : "https://bluebutton.cms.gov/resources/codesystem/information",
            "code" : "https://bluebutton.cms.gov/resources/variables/clm_drg_cd",
            "display" : "Claim Diagnosis Related Group Code (or MS-DRG Code)"
          } ]
        },
        "code" : {
          "coding" : [ {
            "system" : "https://bluebutton.cms.gov/resources/variables/clm_drg_cd",
            "code" : "645"
          } ]
        }
      }, {
        "sequence" : 7,
        "category" : {
          "coding" : [ {
            "system" : "http://terminology.hl7.org/CodeSystem/claiminformationcategory",
            "code" : "info",
            "display" : "Information"
          }, {
            "system" : "https://bluebutton.cms.gov/resources/codesystem/information",
            "code" : "https://bluebutton.cms.gov/resources/variables/nch_ptnt_stus_ind_cd",
            "display" : "NCH Patient Status Indicator Code"
          } ]
        },
        "code" : {
          "coding" : [ {
            "system" : "https://bluebutton.cms.gov/resources/variables/nch_ptnt_stus_ind_cd",
            "code" : "A",
            "display" : "Discharged"
          } ]
        }
      }, {
        "sequence" : 8,
        "category" : {
          "coding" : [ {
            "system" : "http://hl7.org/fhir/us/carin-bb/CodeSystem/C4BBSupportingInfoType",
            "code" : "admissionperiod",
            "display" : "Admission Period"
          } ]
        },
        "timingPeriod" : {
          "start" : "2013-11-05",
          "end" : "2013-12-18"
        }
      }, {
        "sequence" : 9,
        "category" : {
          "coding" : [ {
            "system" : "http://terminology.hl7.org/CodeSystem/claiminformationcategory",
            "code" : "info",
            "display" : "Information"
          }, {
            "system" : "https://bluebutton.cms.gov/resources/codesystem/information",
            "code" : "https://bluebutton.cms.gov/resources/variables/nch_qlfyd_stay_from_dt",
            "display" : "NCH Qualified Stay From Date"
          } ]
        },
        "timingPeriod" : {
          "start" : "2013-09-23",
          "end" : "2013-11-05"
        }
      }, {
        "sequence" : 10,
        "category" : {
          "coding" : [ {
            "system" : "http://terminology.hl7.org/CodeSystem/claiminformationcategory",
            "code" : "info",
            "display" : "Information"
          }, {
            "system" : "https://bluebutton.cms.gov/resources/codesystem/information",
            "code" : "https://bluebutton.cms.gov/resources/variables/clm_pps_ind_cd",
            "display" : "Claim PPS Indicator Code"
          } ]
        },
        "code" : {
          "coding" : [ {
            "system" : "https://bluebutton.cms.gov/resources/variables/clm_pps_ind_cd",
            "code" : "2",
            "display" : "PPS bill; claim contains PPS indicator"
          } ]
        }
      }, {
        "sequence" : 11,
        "category" : {
          "coding" : [ {
            "system" : "http://terminology.hl7.org/CodeSystem/claiminformationcategory",
            "code" : "info",
            "display" : "Information"
          }, {
            "system" : "https://bluebutton.cms.gov/resources/codesystem/information",
            "code" : "https://bluebutton.cms.gov/resources/variables/nch_blood_pnts_frnshd_qty",
            "display" : "NCH Blood Pints Furnished Quantity"
          } ]
        },
        "valueQuantity" : {
          "value" : 19,
          "unit" : "pint",
          "system" : "http://unitsofmeasure.org",
          "code" : "[pt_us]"
        }
      }, {
        "sequence" : 12,
        "category" : {
          "coding" : [ {
            "system" : "http://terminology.hl7.org/CodeSystem/claiminformationcategory",
            "code" : "info",
            "display" : "Information"
          }, {
            "system" : "https://bluebutton.cms.gov/resources/codesystem/information",
            "code" : "https://bluebutton.cms.gov/resources/variables/clm_mco_pd_sw",
            "display" : "Claim MCO Paid Switch"
          } ]
        },
        "code" : {
          "coding" : [ {
            "system" : "https://bluebutton.cms.gov/resources/variables/clm_mco_pd_sw",
            "code" : "0",
            "display" : "No managed care organization (MCO) payment"
          } ]
        }
      }, {
        "sequence" : 13,
        "category" : {
          "coding" : [ {
            "system" : "http://hl7.org/fhir/us/carin-bb/CodeSystem/C4BBSupportingInfoType",
            "code" : "typeofbill",
            "display" : "Type of Bill"
          } ]
        },
        "code" : {
          "coding" : [ {
            "system" : "https://bluebutton.cms.gov/resources/variables/clm_freq_cd",
            "code" : "1",
            "display" : "Admit thru discharge claim"
          } ]
        }
      }, {
        "sequence" : 14,
        "category" : {
          "coding" : [ {
            "system" : "http://hl7.org/fhir/us/carin-bb/CodeSystem/C4BBSupportingInfoType",
            "code" : "discharge-status",
            "display" : "Discharge Status"
          } ]
        },
        "code" : {
          "coding" : [ {
            "system" : "https://bluebutton.cms.gov/resources/variables/ptnt_dschrg_stus_cd",
            "code" : "1"
          } ]
        }
      }, {
        "sequence" : 15,
        "category" : {
          "coding" : [ {
            "system" : "http://terminology.hl7.org/CodeSystem/claiminformationcategory",
            "code" : "info",
            "display" : "Information"
          }, {
            "system" : "https://bluebutton.cms.gov/resources/codesystem/information",
            "code" : "https://bluebutton.cms.gov/resources/variables/nch_prmry_pyr_cd",
            "display" : "NCH Primary Payer Code (if not Medicare)"
          } ]
        },
        "code" : {
          "coding" : [ {
            "system" : "https://bluebutton.cms.gov/resources/variables/nch_prmry_pyr_cd",
            "code" : "A",
            "display" : "Employer group health plan (EGHP) insurance for an aged beneficiary"
          } ]
        }
      } ],
      "diagnosis" : [ {
        "sequence" : 1,
        "diagnosisCodeableConcept" : {
          "coding" : [ {
            "system" : "http://hl7.org/fhir/sid/icd-9-cm",
            "code" : "R4444"
          } ]
        },
        "type" : [ {
          "coding" : [ {
            "system" : "http://hl7.org/fhir/us/carin-bb/CodeSystem/C4BBClaimDiagnosisType",
            "code" : "other",
            "display" : "Other"
          } ]
        } ]
      }, {
        "sequence" : 2,
        "diagnosisCodeableConcept" : {
          "coding" : [ {
            "system" : "http://hl7.org/fhir/sid/icd-9-cm",
            "code" : "R5555"
          } ]
        },
        "type" : [ {
          "coding" : [ {
            "system" : "http://terminology.hl7.org/CodeSystem/ex-diagnosistype",
            "code" : "principal",
            "display" : "Principal Diagnosis"
          } ]
        } ]
      }, {
        "sequence" : 3,
        "diagnosisCodeableConcept" : {
          "coding" : [ {
            "system" : "http://hl7.org/fhir/sid/icd-9-cm",
            "code" : "R6666"
          } ]
        },
        "type" : [ {
          "coding" : [ {
            "system" : "http://hl7.org/fhir/us/carin-bb/CodeSystem/C4BBClaimDiagnosisType",
            "code" : "other",
            "display" : "Other"
          } ]
        } ]
      }, {
        "sequence" : 4,
        "diagnosisCodeableConcept" : {
          "coding" : [ {
            "system" : "http://hl7.org/fhir/sid/icd-9-cm",
            "code" : "R2222"
          } ]
        },
        "type" : [ {
          "coding" : [ {
            "system" : "http://hl7.org/fhir/us/carin-bb/CodeSystem/C4BBClaimDiagnosisType",
            "code" : "externalcauseofinjury",
            "display" : "External Cause of Injury"
          } ]
        } ]
      }, {
        "sequence" : 5,
        "diagnosisCodeableConcept" : {
          "coding" : [ {
            "system" : "http://hl7.org/fhir/sid/icd-9-cm",
            "code" : "R3333"
          } ]
        },
        "type" : [ {
          "coding" : [ {
            "system" : "http://hl7.org/fhir/us/carin-bb/CodeSystem/C4BBClaimDiagnosisType",
            "code" : "externalcauseofinjury",
            "display" : "External Cause of Injury"
          } ]
        } ]
      } ],
      "procedure" : [ {
        "sequence" : 1,
        "date" : "2016-01-16T00:00:00+00:00",
        "procedureCodeableConcept" : {
          "coding" : [ {
            "system" : "http://hl7.org/fhir/sid/icd-9-cm",
            "code" : "0TCCCCC"
          } ]
        }
      } ],
      "insurance" : [ {
        "coverage" : {
          "reference" : "Coverage/part-a-567834"
        }
      } ],
      "item" : [ {
        "sequence" : 1,
        "careTeamSequence" : [ 4 ],
        "revenue" : {
          "coding" : [ {
            "system" : "https://bluebutton.cms.gov/resources/variables/rev_cntr",
            "code" : "22"
          }, {
            "system" : "https://www.nubc.org/CodeSystem/RevenueCodes",
            "code" : "A"
          }, {
            "system" : "https://bluebutton.cms.gov/resources/variables/rev_cntr_ddctbl_coinsrnc_cd",
            "code" : "A"
          } ]
        },
        "productOrService" : {
          "coding" : [ {
            "system" : "https://bluebutton.cms.gov/resources/codesystem/hcpcs",
            "code" : "MMM"
          } ]
        },
        "locationAddress" : {
          "state" : "FL"
        },
        "quantity" : {
          "value" : 0
        },
        "adjudication" : [ {
          "category" : {
            "coding" : [ {
              "system" : "http://terminology.hl7.org/CodeSystem/adjudication",
              "code" : "submitted",
              "display" : "Submitted Amount"
            }, {
              "system" : "https://bluebutton.cms.gov/resources/codesystem/adjudication",
              "code" : "https://bluebutton.cms.gov/resources/variables/rev_cntr_rate_amt",
              "display" : "Revenue Center Rate Amount"
            } ]
          },
          "amount" : {
            "value" : 5.0,
            "currency" : "USD"
          }
        }, {
          "category" : {
            "coding" : [ {
              "system" : "http://terminology.hl7.org/CodeSystem/adjudication",
              "code" : "submitted",
              "display" : "Submitted Amount"
            }, {
              "system" : "https://bluebutton.cms.gov/resources/codesystem/adjudication",
              "code" : "https://bluebutton.cms.gov/resources/variables/rev_cntr_tot_chrg_amt",
              "display" : "Revenue Center Total Charge Amount"
            } ]
          },
          "amount" : {
            "value" : 95.0,
            "currency" : "USD"
          }
        }, {
          "category" : {
            "coding" : [ {
              "system" : "http://hl7.org/fhir/us/carin-bb/CodeSystem/C4BBAdjudication",
              "code" : "noncovered",
              "display" : "Noncovered"
            }, {
              "system" : "https://bluebutton.cms.gov/resources/codesystem/adjudication",
              "code" : "https://bluebutton.cms.gov/resources/variables/rev_cntr_ncvrd_chrg_amt",
              "display" : "Revenue Center Non-Covered Charge Amount"
            } ]
          },
          "amount" : {
            "value" : 88.0,
            "currency" : "USD"
          }
        } ]
      } ],
      "total" : [ {
        "category" : {
          "coding" : [ {
            "system" : "http://terminology.hl7.org/CodeSystem/adjudication",
            "code" : "submitted",
            "display" : "Submitted Amount"
          }, {
            "system" : "https://bluebutton.cms.gov/resources/codesystem/adjudication",
            "code" : "https://bluebutton.cms.gov/resources/variables/clm_tot_chrg_amt",
            "display" : "Claim Total Charge Amount"
          } ]
        },
        "amount" : {
          "value" : 5555.03,
          "currency" : "USD"
        }
      } ],
      "payment" : {
        "amount" : {
          "value" : 3333.33,
          "currency" : "USD"
        }
      },
      "benefitBalance" : [ {
        "category" : {
          "coding" : [ {
            "system" : "http://terminology.hl7.org/CodeSystem/ex-benefitcategory",
            "code" : "1",
            "display" : "Medical Care"
          } ]
        },
        "financial" : [ {
          "type" : {
            "coding" : [ {
              "system" : "https://bluebutton.cms.gov/resources/codesystem/benefit-balance",
              "code" : "https://bluebutton.cms.gov/resources/variables/clm_utlztn_day_cnt",
              "display" : "Claim Medicare Utilization Day Count"
            } ]
          },
          "usedUnsignedInt" : 17
        }, {
          "type" : {
            "coding" : [ {
              "system" : "https://bluebutton.cms.gov/resources/codesystem/benefit-balance",
              "code" : "https://bluebutton.cms.gov/resources/variables/bene_tot_coinsrnc_days_cnt",
              "display" : "Beneficiary Total Coinsurance Days Count"
            } ]
          },
          "usedUnsignedInt" : 17
        }, {
          "type" : {
            "coding" : [ {
              "system" : "https://bluebutton.cms.gov/resources/codesystem/benefit-balance",
              "code" : "https://bluebutton.cms.gov/resources/variables/clm_non_utlztn_days_cnt",
              "display" : "Claim Medicare Non Utilization Days Count"
            } ]
          },
          "usedUnsignedInt" : 0
        }, {
          "type" : {
            "coding" : [ {
              "system" : "https://bluebutton.cms.gov/resources/codesystem/benefit-balance",
              "code" : "https://bluebutton.cms.gov/resources/variables/nch_bene_ip_ddctbl_amt",
              "display" : "NCH Beneficiary Inpatient (or other Part A) Deductible Amount"
            } ]
          },
          "usedMoney" : {
            "value" : 112.0,
            "currency" : "USD"
          }
        }, {
          "type" : {
            "coding" : [ {
              "system" : "https://bluebutton.cms.gov/resources/codesystem/benefit-balance",
              "code" : "https://bluebutton.cms.gov/resources/variables/nch_bene_pta_coinsrnc_lblty_amt",
              "display" : "NCH Beneficiary Part A Coinsurance Liability Amount"
            } ]
          },
          "usedMoney" : {
            "value" : 5.0,
            "currency" : "USD"
          }
        }, {
          "type" : {
            "coding" : [ {
              "system" : "https://bluebutton.cms.gov/resources/codesystem/benefit-balance",
              "code" : "https://bluebutton.cms.gov/resources/variables/nch_ip_ncvrd_chrg_amt",
              "display" : "NCH Inpatient(or other Part A) Non-covered Charge Amount"
            } ]
          },
          "usedMoney" : {
            "value" : 33.0,
            "currency" : "USD"
          }
        }, {
          "type" : {
            "coding" : [ {
              "system" : "https://bluebutton.cms.gov/resources/codesystem/benefit-balance",
              "code" : "https://bluebutton.cms.gov/resources/variables/nch_ip_tot_ddctn_amt",
              "display" : "NCH Inpatient (or other Part A) Total Deductible/Coinsurance Amount"
            } ]
          },
          "usedMoney" : {
            "value" : 14.0,
            "currency" : "USD"
          }
        }, {
          "type" : {
            "coding" : [ {
              "system" : "https://bluebutton.cms.gov/resources/codesystem/benefit-balance",
              "code" : "https://bluebutton.cms.gov/resources/variables/clm_pps_cptl_dsprprtnt_shr_amt",
              "display" : "Claim PPS Capital Disproportionate Share Amount"
            } ]
          },
          "usedMoney" : {
            "value" : 7.0,
            "currency" : "USD"
          }
        }, {
          "type" : {
            "coding" : [ {
              "system" : "https://bluebutton.cms.gov/resources/codesystem/benefit-balance",
              "code" : "https://bluebutton.cms.gov/resources/variables/clm_pps_cptl_excptn_amt",
              "display" : "Claim PPS Capital Exception Amount"
            } ]
          },
          "usedMoney" : {
            "value" : 5.0,
            "currency" : "USD"
          }
        }, {
          "type" : {
            "coding" : [ {
              "system" : "https://bluebutton.cms.gov/resources/codesystem/benefit-balance",
              "code" : "https://bluebutton.cms.gov/resources/variables/clm_pps_cptl_fsp_amt",
              "display" : "Claim PPS Capital Federal Specific Portion (FSP) Amount"
            } ]
          },
          "usedMoney" : {
            "value" : 9.0,
            "currency" : "USD"
          }
        }, {
          "type" : {
            "coding" : [ {
              "system" : "https://bluebutton.cms.gov/resources/codesystem/benefit-balance",
              "code" : "https://bluebutton.cms.gov/resources/variables/clm_pps_cptl_ime_amt",
              "display" : "Claim PPS Capital Indirect Medical Education (IME) Amount"
            } ]
          },
          "usedMoney" : {
            "value" : 6.0,
            "currency" : "USD"
          }
        }, {
          "type" : {
            "coding" : [ {
              "system" : "https://bluebutton.cms.gov/resources/codesystem/benefit-balance",
              "code" : "https://bluebutton.cms.gov/resources/variables/clm_pps_cptl_outlier_amt",
              "display" : "Claim PPS Capital Outlier Amount"
            } ]
          },
          "usedMoney" : {
            "value" : 8.0,
            "currency" : "USD"
          }
        }, {
          "type" : {
            "coding" : [ {
              "system" : "https://bluebutton.cms.gov/resources/codesystem/benefit-balance",
              "code" : "https://bluebutton.cms.gov/resources/variables/clm_pps_old_cptl_hld_hrmls_amt",
              "display" : "Claim PPS Old Capital Hold Harmless Amount"
            } ]
          },
          "usedMoney" : {
            "value" : 4.0,
            "currency" : "USD"
          }
        }, {
          "type" : {
            "coding" : [ {
              "system" : "https://bluebutton.cms.gov/resources/codesystem/benefit-balance",
              "code" : "https://bluebutton.cms.gov/resources/variables/nch_bene_blood_ddctbl_lblty_am",
              "display" : "NCH Beneficiary Blood Deductible Liability Amount"
            } ]
          },
          "usedMoney" : {
            "value" : 6.0,
            "currency" : "USD"
          }
        }, {
          "type" : {
            "coding" : [ {
              "system" : "https://bluebutton.cms.gov/resources/codesystem/benefit-balance",
              "code" : "https://bluebutton.cms.gov/resources/variables/prpayamt",
              "display" : "NCH Primary Payer (if not Medicare) Claim Paid Amount"
            } ]
          },
          "usedMoney" : {
            "value" : 11.0,
            "currency" : "USD"
          }
        } ]
      } ]
    }
  }, {
    "resource" : {
      "resourceType" : "ExplanationOfBenefit",
      "id" : "pde-89",
      "meta" : {
        "lastUpdated" : "IGNORED_FIELD",
        "profile" : [ "http://hl7.org/fhir/us/carin-bb/StructureDefinition/C4BB-ExplanationOfBenefit-Pharmacy" ]
      },
      "identifier" : [ {
        "type" : {
          "coding" : [ {
            "system" : "http://hl7.org/fhir/us/carin-bb/CodeSystem/C4BBIdentifierType",
            "code" : "uc",
            "display" : "Unique Claim ID"
          } ]
        },
        "system" : "https://bluebutton.cms.gov/resources/variables/pde_id",
        "value" : "89"
      }, {
        "type" : {
          "coding" : [ {
            "system" : "http://hl7.org/fhir/us/carin-bb/CodeSystem/C4BBIdentifierType",
            "code" : "uc",
            "display" : "Unique Claim ID"
          } ]
        },
        "system" : "https://bluebutton.cms.gov/resources/identifier/claim-group",
        "value" : "900"
      }, {
        "type" : {
          "coding" : [ {
            "system" : "http://hl7.org/fhir/us/carin-bb/CodeSystem/C4BBIdentifierType",
            "code" : "uc",
            "display" : "Unique Claim ID"
          } ]
        },
        "system" : "https://bluebutton.cms.gov/resources/variables/rx_srvc_rfrnc_num",
        "value" : "799999"
      } ],
      "status" : "active",
      "type" : {
        "coding" : [ {
          "system" : "https://bluebutton.cms.gov/resources/codesystem/eob-type",
          "code" : "PDE"
        }, {
          "system" : "http://terminology.hl7.org/CodeSystem/claim-type",
          "code" : "pharmacy",
          "display" : "Pharmacy"
        } ]
      },
      "use" : "claim",
      "patient" : {
        "reference" : "Patient/567834"
      },
      "billablePeriod" : {
        "start" : "2015-05-12",
        "end" : "2015-05-12"
      },
      "created" : "IGNORED_FIELD",
      "insurer" : {
        "identifier" : {
          "value" : "CMS"
        }
      },
      "facility" : {
        "extension" : [ {
          "url" : "https://bluebutton.cms.gov/resources/variables/phrmcy_srvc_type_cd",
          "valueCoding" : {
            "system" : "https://bluebutton.cms.gov/resources/variables/phrmcy_srvc_type_cd",
            "code" : "01",
            "display" : "Community/retail pharmacy"
          }
        } ],
        "identifier" : {
          "type" : {
            "coding" : [ {
              "system" : "http://hl7.org/fhir/us/carin-bb/CodeSystem/C4BBIdentifierType",
              "code" : "npi"
            } ]
          },
          "value" : "1023011079"
        },
        "display" : "ADVANTAGE HOME HEALTH CARE, INC."
      },
      "outcome" : "complete",
      "careTeam" : [ {
        "sequence" : 1,
        "provider" : {
          "identifier" : {
            "type" : {
              "coding" : [ {
                "system" : "http://hl7.org/fhir/us/carin-bb/CodeSystem/C4BBIdentifierType",
                "code" : "npi",
                "display" : "National Provider Identifier"
              } ]
            },
            "value" : "1750384806"
          },
          "display" : "DR. ROBERT BISBEE MD"
        },
        "role" : {
          "coding" : [ {
            "system" : "http://hl7.org/fhir/us/carin-bb/CodeSystem/C4BBClaimCareTeamRole",
            "code" : "prescribing",
            "display" : "Prescribing provider"
          } ]
        }
      } ],
      "supportingInfo" : [ {
        "sequence" : 1,
        "category" : {
          "coding" : [ {
            "system" : "http://hl7.org/fhir/us/carin-bb/CodeSystem/C4BBSupportingInfoType",
            "code" : "compoundcode",
            "display" : "Compound Code"
          } ]
        },
        "code" : {
          "coding" : [ {
            "system" : "http://terminology.hl7.org/CodeSystem/v3-ActCode",
            "code" : "RXDINV",
            "display" : "Rx dispense invoice"
          } ]
        }
      }, {
        "sequence" : 2,
        "category" : {
          "coding" : [ {
            "system" : "http://hl7.org/fhir/us/carin-bb/CodeSystem/C4BBSupportingInfoType",
            "code" : "refillnum",
            "display" : "Refill Number"
          } ]
        },
        "valueQuantity" : {
          "value" : 3
        }
      }, {
        "sequence" : 3,
        "category" : {
          "coding" : [ {
            "system" : "http://hl7.org/fhir/us/carin-bb/CodeSystem/C4BBSupportingInfoType",
            "code" : "dayssupply",
            "display" : "Days Supply"
          } ]
        },
        "valueQuantity" : {
          "value" : 30
        }
      }, {
        "sequence" : 4,
        "category" : {
          "coding" : [ {
            "system" : "http://terminology.hl7.org/CodeSystem/claiminformationcategory",
            "code" : "info",
            "display" : "Information"
          }, {
            "system" : "https://bluebutton.cms.gov/resources/codesystem/information",
            "code" : "https://bluebutton.cms.gov/resources/variables/drug_cvrg_stus_cd",
            "display" : "Drug Coverage Status Code"
          } ]
        },
        "code" : {
          "coding" : [ {
            "system" : "https://bluebutton.cms.gov/resources/variables/drug_cvrg_stus_cd",
            "code" : "C",
            "display" : "Covered"
          } ]
        }
      }, {
        "sequence" : 5,
        "category" : {
          "coding" : [ {
            "system" : "http://terminology.hl7.org/CodeSystem/claiminformationcategory",
            "code" : "info",
            "display" : "Information"
          }, {
            "system" : "https://bluebutton.cms.gov/resources/codesystem/information",
            "code" : "https://bluebutton.cms.gov/resources/variables/daw_prod_slctn_cd",
            "display" : "Dispense as Written (DAW) Product Selection Code"
          } ]
        },
        "code" : {
          "coding" : [ {
            "system" : "https://bluebutton.cms.gov/resources/variables/daw_prod_slctn_cd",
            "code" : "0",
            "display" : "No Product Selection Indicated (may also have missing values)"
          } ]
        }
      }, {
        "sequence" : 6,
        "category" : {
          "coding" : [ {
            "system" : "http://terminology.hl7.org/CodeSystem/claiminformationcategory",
            "code" : "info",
            "display" : "Information"
          }, {
            "system" : "https://bluebutton.cms.gov/resources/codesystem/information",
            "code" : "https://bluebutton.cms.gov/resources/variables/dspnsng_stus_cd",
            "display" : "Dispensing Status Code"
          } ]
        },
        "code" : {
          "coding" : [ {
            "system" : "https://bluebutton.cms.gov/resources/variables/dspnsng_stus_cd",
            "code" : "P",
            "display" : "Partial fill"
          } ]
        }
      }, {
        "sequence" : 7,
        "category" : {
          "coding" : [ {
            "system" : "http://terminology.hl7.org/CodeSystem/claiminformationcategory",
            "code" : "info",
            "display" : "Information"
          }, {
            "system" : "https://bluebutton.cms.gov/resources/codesystem/information",
            "code" : "https://bluebutton.cms.gov/resources/variables/drug_cvrg_stus_cd",
            "display" : "Drug Coverage Status Code"
          } ]
        },
        "code" : {
          "coding" : [ {
            "system" : "https://bluebutton.cms.gov/resources/variables/drug_cvrg_stus_cd",
            "code" : "C",
            "display" : "Covered"
          } ]
        }
      }, {
        "sequence" : 8,
        "category" : {
          "coding" : [ {
            "system" : "http://terminology.hl7.org/CodeSystem/claiminformationcategory",
            "code" : "info",
            "display" : "Information"
          }, {
            "system" : "https://bluebutton.cms.gov/resources/codesystem/information",
            "code" : "https://bluebutton.cms.gov/resources/variables/adjstmt_dltn_cd",
            "display" : "Adjustment Deletion Code"
          } ]
        },
        "code" : {
          "coding" : [ {
            "system" : "https://bluebutton.cms.gov/resources/variables/adjstmt_dltn_cd",
            "code" : "A",
            "display" : "Adjustment"
          } ]
        }
      }, {
        "sequence" : 9,
        "category" : {
          "coding" : [ {
            "system" : "http://terminology.hl7.org/CodeSystem/claiminformationcategory",
            "code" : "info",
            "display" : "Information"
          }, {
            "system" : "https://bluebutton.cms.gov/resources/codesystem/information",
            "code" : "https://bluebutton.cms.gov/resources/variables/nstd_frmt_cd",
            "display" : "Non-Standard Format Code"
          } ]
        },
        "code" : {
          "coding" : [ {
            "system" : "https://bluebutton.cms.gov/resources/variables/nstd_frmt_cd",
            "code" : "X",
            "display" : "X12 837"
          } ]
        }
      }, {
        "sequence" : 10,
        "category" : {
          "coding" : [ {
            "system" : "http://terminology.hl7.org/CodeSystem/claiminformationcategory",
            "code" : "info",
            "display" : "Information"
          }, {
            "system" : "https://bluebutton.cms.gov/resources/codesystem/information",
            "code" : "https://bluebutton.cms.gov/resources/variables/prcng_excptn_cd",
            "display" : "Pricing Exception Code"
          } ]
        },
        "code" : {
          "coding" : [ {
            "system" : "https://bluebutton.cms.gov/resources/variables/prcng_excptn_cd",
            "code" : "M",
            "display" : "Medicare is a secondary payer (MSP)"
          } ]
        }
      }, {
        "sequence" : 11,
        "category" : {
          "coding" : [ {
            "system" : "http://terminology.hl7.org/CodeSystem/claiminformationcategory",
            "code" : "info",
            "display" : "Information"
          }, {
            "system" : "https://bluebutton.cms.gov/resources/codesystem/information",
            "code" : "https://bluebutton.cms.gov/resources/variables/ctstrphc_cvrg_cd",
            "display" : "Catastrophic Coverage Code"
          } ]
        },
        "code" : {
          "coding" : [ {
            "system" : "https://bluebutton.cms.gov/resources/variables/ctstrphc_cvrg_cd",
            "code" : "C",
            "display" : "Above attachment point"
          } ]
        }
      }, {
        "sequence" : 12,
        "category" : {
          "coding" : [ {
            "system" : "http://hl7.org/fhir/us/carin-bb/CodeSystem/C4BBSupportingInfoType",
            "code" : "rxorigincode",
            "display" : "Rx Origin Code"
          } ]
        },
        "code" : {
          "coding" : [ {
            "system" : "https://bluebutton.cms.gov/resources/variables/rx_orgn_cd",
            "code" : "3",
            "display" : "Electronic"
          } ]
        }
      }, {
        "sequence" : 13,
        "category" : {
          "coding" : [ {
            "system" : "http://hl7.org/fhir/us/carin-bb/CodeSystem/C4BBSupportingInfoType",
            "code" : "brandgenericcode",
            "display" : "Brand Generic Code"
          } ]
        },
        "code" : {
          "coding" : [ {
            "system" : "https://bluebutton.cms.gov/resources/variables/brnd_gnrc_cd",
            "code" : "G",
            "display" : "Generic Null/missing"
          } ]
        }
      }, {
        "sequence" : 14,
        "category" : {
          "coding" : [ {
            "system" : "http://terminology.hl7.org/CodeSystem/claiminformationcategory",
            "code" : "info",
            "display" : "Information"
          }, {
            "system" : "https://bluebutton.cms.gov/resources/codesystem/information",
            "code" : "https://bluebutton.cms.gov/resources/variables/ptnt_rsdnc_cd",
            "display" : "Patient Residence Code"
          } ]
        },
        "code" : {
          "coding" : [ {
            "system" : "https://bluebutton.cms.gov/resources/variables/ptnt_rsdnc_cd",
            "code" : "02",
            "display" : "Skilled Nursing Facility"
          } ]
        }
      }, {
        "sequence" : 15,
        "category" : {
          "coding" : [ {
            "system" : "http://terminology.hl7.org/CodeSystem/claiminformationcategory",
            "code" : "info",
            "display" : "Information"
          }, {
            "system" : "https://bluebutton.cms.gov/resources/codesystem/information",
            "code" : "https://bluebutton.cms.gov/resources/variables/submsn_clr_cd",
            "display" : "Submission clarification code"
          } ]
        },
        "code" : {
          "coding" : [ {
            "system" : "https://bluebutton.cms.gov/resources/variables/submsn_clr_cd",
            "code" : "08",
            "display" : "Process compound for approved ingredients"
          } ]
        }
      } ],
      "insurance" : [ {
        "coverage" : {
          "extension" : [ {
            "url" : "https://bluebutton.cms.gov/resources/variables/plan_cntrct_rec_id",
            "valueIdentifier" : {
              "system" : "https://bluebutton.cms.gov/resources/variables/plan_cntrct_rec_id",
              "value" : "H9999"
            }
          }, {
            "url" : "https://bluebutton.cms.gov/resources/variables/plan_pbp_rec_num",
            "valueIdentifier" : {
              "system" : "https://bluebutton.cms.gov/resources/variables/plan_pbp_rec_num",
              "value" : "020"
            }
          } ],
          "reference" : "Coverage/part-d-567834"
        }
      } ],
      "item" : [ {
        "sequence" : 1,
        "careTeamSequence" : [ 1 ],
        "productOrService" : {
          "coding" : [ {
            "system" : "http://hl7.org/fhir/sid/ndc",
            "code" : "500904610",
            "display" : "ACETAMINOPHEN AND CODEINE PHOSPHATE - ACETAMINOPHEN; CODEINE PHOSPHATE"
          } ]
        },
        "servicedDate" : "2015-05-12",
        "quantity" : {
          "value" : 60.0
        },
        "adjudication" : [ {
          "category" : {
            "coding" : [ {
              "system" : "http://terminology.hl7.org/CodeSystem/adjudication",
              "code" : "benefit",
              "display" : "Benefit Amount"
            }, {
              "system" : "https://bluebutton.cms.gov/resources/codesystem/adjudication",
              "code" : "https://bluebutton.cms.gov/resources/variables/cvrd_d_plan_pd_amt",
              "display" : "Amount paid by Part D plan for the PDE (drug is covered by Part D)"
            } ]
          },
          "amount" : {
            "value" : 126.99,
            "currency" : "USD"
          }
        }, {
          "category" : {
            "coding" : [ {
              "system" : "http://hl7.org/fhir/us/carin-bb/CodeSystem/C4BBAdjudication",
              "code" : "coinsurance",
              "display" : "Co-insurance"
            }, {
              "system" : "https://bluebutton.cms.gov/resources/codesystem/adjudication",
              "code" : "https://bluebutton.cms.gov/resources/variables/gdc_blw_oopt_amt",
              "display" : "Gross Drug Cost Below Part D Out-of-Pocket Threshold (GDCB)"
            } ]
          },
          "amount" : {
            "value" : 995.34,
            "currency" : "USD"
          }
        }, {
          "category" : {
            "coding" : [ {
              "system" : "http://hl7.org/fhir/us/carin-bb/CodeSystem/C4BBAdjudication",
              "code" : "coinsurance",
              "display" : "Co-insurance"
            }, {
              "system" : "https://bluebutton.cms.gov/resources/codesystem/adjudication",
              "code" : "https://bluebutton.cms.gov/resources/variables/gdc_abv_oopt_amt",
              "display" : "Gross Drug Cost Above Part D Out-of-Pocket Threshold (GDCA)"
            } ]
          },
          "amount" : {
            "value" : 15.25,
            "currency" : "USD"
          }
        }, {
          "category" : {
            "coding" : [ {
              "system" : "http://hl7.org/fhir/us/carin-bb/CodeSystem/C4BBAdjudication",
              "code" : "paidbypatient",
              "display" : "Paid by patient"
            }, {
              "system" : "https://bluebutton.cms.gov/resources/codesystem/adjudication",
              "code" : "https://bluebutton.cms.gov/resources/variables/ptnt_pay_amt",
              "display" : "Amount Paid by Patient"
            } ]
          },
          "amount" : {
            "value" : 235.85,
            "currency" : "USD"
          }
        }, {
          "category" : {
            "coding" : [ {
              "system" : "http://hl7.org/fhir/us/carin-bb/CodeSystem/C4BBAdjudication",
              "code" : "priorpayerpaid",
              "display" : "Prior payer paid"
            }, {
              "system" : "https://bluebutton.cms.gov/resources/codesystem/adjudication",
              "code" : "https://bluebutton.cms.gov/resources/variables/othr_troop_amt",
              "display" : "Other True Out-of-Pocket (TrOOP) Amount"
            } ]
          },
          "amount" : {
            "value" : 17.3,
            "currency" : "USD"
          }
        }, {
          "category" : {
            "coding" : [ {
              "system" : "http://hl7.org/fhir/us/carin-bb/CodeSystem/C4BBAdjudication",
              "code" : "discount",
              "display" : "Discount"
            }, {
              "system" : "https://bluebutton.cms.gov/resources/codesystem/adjudication",
              "code" : "https://bluebutton.cms.gov/resources/variables/lics_amt",
              "display" : "Amount paid for the PDE by Part D low income subsidy"
            } ]
          },
          "amount" : {
            "value" : 122.23,
            "currency" : "USD"
          }
        }, {
          "category" : {
            "coding" : [ {
              "system" : "http://hl7.org/fhir/us/carin-bb/CodeSystem/C4BBAdjudication",
              "code" : "priorpayerpaid",
              "display" : "Prior payer paid"
            }, {
              "system" : "https://bluebutton.cms.gov/resources/codesystem/adjudication",
              "code" : "https://bluebutton.cms.gov/resources/variables/plro_amt",
              "display" : "Reduction in patient liability due to payments by other payers (PLRO)"
            } ]
          },
          "amount" : {
            "value" : 42.42,
            "currency" : "USD"
          }
        }, {
          "category" : {
            "coding" : [ {
              "system" : "http://hl7.org/fhir/us/carin-bb/CodeSystem/C4BBAdjudication",
              "code" : "drugcost",
              "display" : "Drug Cost"
            }, {
              "system" : "https://bluebutton.cms.gov/resources/codesystem/adjudication",
              "code" : "https://bluebutton.cms.gov/resources/variables/tot_rx_cst_amt",
              "display" : "Total drug cost (Part D)"
            } ]
          },
          "amount" : {
            "value" : 550.0,
            "currency" : "USD"
          }
        }, {
          "category" : {
            "coding" : [ {
              "system" : "http://hl7.org/fhir/us/carin-bb/CodeSystem/C4BBAdjudication",
              "code" : "discount",
              "display" : "Discount"
            }, {
              "system" : "https://bluebutton.cms.gov/resources/codesystem/adjudication",
              "code" : "https://bluebutton.cms.gov/resources/variables/rptd_gap_dscnt_num",
              "display" : "Gap Discount Amount"
            } ]
          },
          "amount" : {
            "value" : 317.22,
            "currency" : "USD"
          }
        } ]
      } ],
      "payment" : {
        "date" : "2015-05-27"
      }
    }
  }, {
    "resource" : {
      "resourceType" : "ExplanationOfBenefit",
      "id" : "carrier-9991831999",
      "meta" : {
        "lastUpdated" : "IGNORED_FIELD",
        "profile" : [ "http://hl7.org/fhir/us/carin-bb/StructureDefinition/C4BB-ExplanationOfBenefit-Professional-NonClinician" ]
      },
      "contained" : [ {
        "resourceType" : "Observation",
        "id" : "line-observation-6",
        "status" : "unknown",
        "code" : {
          "coding" : [ {
            "system" : "https://bluebutton.cms.gov/resources/variables/line_hct_hgb_type_cd",
            "code" : "R1",
            "display" : "Hemoglobin Test"
          } ]
        },
        "valueQuantity" : {
          "value" : 42.0
        }
      } ],
      "extension" : [ {
        "url" : "https://bluebutton.cms.gov/resources/variables/nch_near_line_rec_ident_cd",
        "valueCoding" : {
          "system" : "https://bluebutton.cms.gov/resources/variables/nch_near_line_rec_ident_cd",
          "code" : "O",
          "display" : "Part B physician/supplier claim record (processed by local carriers; can include DMEPOS services)"
        }
      }, {
        "url" : "https://bluebutton.cms.gov/resources/variables/carr_num",
        "valueIdentifier" : {
          "system" : "https://bluebutton.cms.gov/resources/variables/carr_num",
          "value" : "61026"
        }
      }, {
        "url" : "https://bluebutton.cms.gov/resources/variables/carr_clm_cntl_num",
        "valueIdentifier" : {
          "system" : "https://bluebutton.cms.gov/resources/variables/carr_clm_cntl_num",
          "value" : "74655592568216"
        }
      }, {
        "url" : "https://bluebutton.cms.gov/resources/variables/carr_clm_pmt_dnl_cd",
        "valueCoding" : {
          "system" : "https://bluebutton.cms.gov/resources/variables/carr_clm_pmt_dnl_cd",
          "code" : "1",
          "display" : "Physician/supplier"
        }
      }, {
        "url" : "https://bluebutton.cms.gov/resources/variables/asgmntcd",
        "valueCoding" : {
          "system" : "https://bluebutton.cms.gov/resources/variables/asgmntcd",
          "code" : "A",
          "display" : "Assigned claim"
        }
      }, {
        "url" : "https://bluebutton.cms.gov/resources/variables/clm_clncl_tril_num",
        "valueIdentifier" : {
          "system" : "https://bluebutton.cms.gov/resources/variables/clm_clncl_tril_num",
          "value" : "0"
        }
      }, {
        "url" : "https://bluebutton.cms.gov/resources/variables/carr_clm_entry_cd",
        "valueCoding" : {
          "system" : "https://bluebutton.cms.gov/resources/variables/carr_clm_entry_cd",
          "code" : "1",
          "display" : "Original debit; void of original debit (If CLM_DISP_CD = 3, code 1 means voided original debit)"
        }
      } ],
      "identifier" : [ {
        "type" : {
          "coding" : [ {
            "system" : "http://hl7.org/fhir/us/carin-bb/CodeSystem/C4BBIdentifierType",
            "code" : "uc",
            "display" : "Unique Claim ID"
          } ]
        },
        "system" : "https://bluebutton.cms.gov/resources/variables/clm_id",
        "value" : "9991831999"
      }, {
        "type" : {
          "coding" : [ {
            "system" : "http://hl7.org/fhir/us/carin-bb/CodeSystem/C4BBIdentifierType",
            "code" : "uc",
            "display" : "Unique Claim ID"
          } ]
        },
        "system" : "https://bluebutton.cms.gov/resources/identifier/claim-group",
        "value" : "900"
      } ],
      "status" : "active",
      "type" : {
        "coding" : [ {
          "system" : "https://bluebutton.cms.gov/resources/variables/nch_clm_type_cd",
          "code" : "71",
          "display" : "Local carrier non-durable medical equipment, prosthetics, orthotics, and supplies (DMEPOS) claim"
        }, {
          "system" : "https://bluebutton.cms.gov/resources/codesystem/eob-type",
          "code" : "CARRIER"
        }, {
          "system" : "http://terminology.hl7.org/CodeSystem/claim-type",
          "code" : "professional",
          "display" : "Professional"
        } ]
      },
      "use" : "claim",
      "patient" : {
        "reference" : "Patient/567834"
      },
      "billablePeriod" : {
        "start" : "1999-10-27",
        "end" : "1999-10-27"
      },
      "created" : "IGNORED_FIELD",
      "insurer" : {
        "identifier" : {
          "value" : "CMS"
        }
      },
      "referral" : {
        "identifier" : {
          "type" : {
            "coding" : [ {
              "system" : "http://hl7.org/fhir/us/carin-bb/CodeSystem/C4BBIdentifierType",
              "code" : "npi",
              "display" : "National Provider Identifier"
            } ]
          },
          "value" : "8765676"
        }
      },
      "outcome" : "complete",
      "disposition" : "1",
      "careTeam" : [ {
        "sequence" : 1,
        "provider" : {
          "identifier" : {
            "type" : {
              "coding" : [ {
                "system" : "http://hl7.org/fhir/us/carin-bb/CodeSystem/C4BBIdentifierType",
                "code" : "npi",
                "display" : "National Provider Identifier"
              } ]
            },
            "value" : "8765676"
          }
        },
        "role" : {
          "coding" : [ {
            "system" : "http://hl7.org/fhir/us/carin-bb/CodeSystem/C4BBClaimCareTeamRole",
            "code" : "referring",
            "display" : "Referring"
          } ]
        }
      }, {
        "sequence" : 2,
        "provider" : {
          "identifier" : {
            "type" : {
              "coding" : [ {
                "system" : "http://hl7.org/fhir/us/carin-bb/CodeSystem/C4BBIdentifierType",
                "code" : "npi",
                "display" : "National Provider Identifier"
              } ]
            },
            "value" : "K25852"
          }
        },
        "role" : {
          "coding" : [ {
            "system" : "http://hl7.org/fhir/us/carin-bb/CodeSystem/C4BBClaimCareTeamRole",
            "code" : "referring",
            "display" : "Referring"
          } ]
        }
      }, {
        "extension" : [ {
          "url" : "https://bluebutton.cms.gov/resources/variables/carr_line_prvdr_type_cd",
          "valueCoding" : {
            "system" : "https://bluebutton.cms.gov/resources/variables/carr_line_prvdr_type_cd",
            "code" : "0"
          }
        }, {
          "url" : "https://bluebutton.cms.gov/resources/variables/prtcptng_ind_cd",
          "valueCoding" : {
            "system" : "https://bluebutton.cms.gov/resources/variables/prtcptng_ind_cd",
            "code" : "1",
            "display" : "Participating"
          }
        } ],
        "sequence" : 3,
        "provider" : {
          "identifier" : {
            "type" : {
              "coding" : [ {
                "system" : "http://hl7.org/fhir/us/carin-bb/CodeSystem/C4BBIdentifierType",
                "code" : "npi",
                "display" : "National Provider Identifier"
              } ]
            },
            "value" : "1923124"
          }
        },
        "responsible" : true,
        "role" : {
          "coding" : [ {
            "system" : "http://hl7.org/fhir/us/carin-bb/CodeSystem/C4BBClaimCareTeamRole",
            "code" : "performing",
            "display" : "Performing provider"
          } ]
        },
        "qualification" : {
          "coding" : [ {
            "system" : "https://bluebutton.cms.gov/resources/variables/prvdr_spclty",
            "code" : "41",
            "display" : "Optometrist"
          } ]
        }
      }, {
        "sequence" : 4,
        "provider" : {
          "identifier" : {
            "type" : {
              "coding" : [ {
                "system" : "http://hl7.org/fhir/us/carin-bb/CodeSystem/C4BBIdentifierType",
                "code" : "npi",
                "display" : "National Provider Identifier"
              } ]
            },
            "value" : "1497758544"
          },
          "display" : "CUMBERLAND COUNTY HOSPITAL SYSTEM, INC"
        },
        "role" : {
          "coding" : [ {
            "system" : "http://terminology.hl7.org/CodeSystem/claimcareteamrole",
            "code" : "primary",
            "display" : "Primary provider"
          } ]
        }
      } ],
      "supportingInfo" : [ {
        "sequence" : 1,
        "category" : {
          "coding" : [ {
            "system" : "http://hl7.org/fhir/us/carin-bb/CodeSystem/C4BBSupportingInfoType",
            "code" : "clmrecvddate",
            "display" : "Claim Received Date"
          }, {
            "system" : "https://bluebutton.cms.gov/resources/codesystem/information",
            "code" : "https://bluebutton.cms.gov/resources/variables/nch_wkly_proc_dt",
            "display" : "NCH Weekly Claim Processing Date"
          } ]
        },
        "timingDate" : "1999-11-06"
      }, {
        "sequence" : 2,
        "category" : {
          "coding" : [ {
            "system" : "http://terminology.hl7.org/CodeSystem/claiminformationcategory",
            "code" : "info",
            "display" : "Information"
          }, {
            "system" : "https://bluebutton.cms.gov/resources/codesystem/information",
            "code" : "https://bluebutton.cms.gov/resources/variables/line_hct_hgb_rslt_num",
            "display" : "Hematocrit / Hemoglobin Test Results"
          } ]
        },
        "valueReference" : {
          "reference" : "#line-observation-6"
        }
      } ],
      "diagnosis" : [ {
        "sequence" : 1,
        "diagnosisCodeableConcept" : {
          "coding" : [ {
            "system" : "http://hl7.org/fhir/sid/icd-10",
            "code" : "H5555"
          } ]
        },
        "type" : [ {
          "coding" : [ {
            "system" : "http://terminology.hl7.org/CodeSystem/ex-diagnosistype",
            "code" : "principal",
            "display" : "principal"
          } ]
        } ]
      }, {
        "sequence" : 2,
        "diagnosisCodeableConcept" : {
          "coding" : [ {
            "system" : "http://hl7.org/fhir/sid/icd-10",
            "code" : "H8888"
          } ]
        },
        "type" : [ {
          "coding" : [ {
            "system" : "http://hl7.org/fhir/us/carin-bb/CodeSystem/C4BBClaimDiagnosisType",
            "code" : "secondary",
            "display" : "Secondary"
          } ]
        } ]
      }, {
        "sequence" : 3,
        "diagnosisCodeableConcept" : {
          "coding" : [ {
            "system" : "http://hl7.org/fhir/sid/icd-10",
            "code" : "H66666"
          } ]
        },
        "type" : [ {
          "coding" : [ {
            "system" : "http://hl7.org/fhir/us/carin-bb/CodeSystem/C4BBClaimDiagnosisType",
            "code" : "secondary",
            "display" : "Secondary"
          } ]
        } ]
      }, {
        "sequence" : 4,
        "diagnosisCodeableConcept" : {
          "coding" : [ {
            "system" : "http://hl7.org/fhir/sid/icd-10",
            "code" : "H77777"
          } ]
        },
        "type" : [ {
          "coding" : [ {
            "system" : "http://hl7.org/fhir/us/carin-bb/CodeSystem/C4BBClaimDiagnosisType",
            "code" : "secondary",
            "display" : "Secondary"
          } ]
        } ]
      }, {
        "sequence" : 5,
        "diagnosisCodeableConcept" : {
          "coding" : [ {
            "system" : "http://hl7.org/fhir/sid/icd-10",
            "code" : "H12345"
          } ]
        },
        "type" : [ {
          "coding" : [ {
            "system" : "http://hl7.org/fhir/us/carin-bb/CodeSystem/C4BBClaimDiagnosisType",
            "code" : "secondary",
            "display" : "Secondary"
          } ]
        } ]
      } ],
      "insurance" : [ {
        "coverage" : {
          "reference" : "Coverage/part-b-567834"
        }
      } ],
      "item" : [ {
        "extension" : [ {
          "url" : "https://bluebutton.cms.gov/resources/variables/carr_line_mtus_cnt",
          "valueQuantity" : {
            "value" : 1
          }
        }, {
            "url" : "https://bluebutton.cms.gov/resources/variables/carr_line_mtus_cnt",
            "valueCoding" : {
              "system" : "https://bluebutton.cms.gov/resources/variables/carr_line_mtus_cnt",
              "code" : "3",
              "display":"Services"
            }
          }, {
          "url" : "https://bluebutton.cms.gov/resources/variables/carr_line_mtus_cd",
          "valueCoding" : {
            "system" : "https://bluebutton.cms.gov/resources/variables/carr_line_mtus_cd",
            "code" : "3",
            "display":"Services"
          }
        }, {
          "url" : "https://bluebutton.cms.gov/resources/variables/betos_cd",
          "valueCoding" : {
            "system" : "https://bluebutton.cms.gov/resources/variables/betos_cd",
            "code" : "T2D",
            "display" : "Other tests - other"
          }
        }, {
          "url" : "https://bluebutton.cms.gov/resources/variables/line_bene_prmry_pyr_cd",
          "valueCoding" : {
            "system" : "https://bluebutton.cms.gov/resources/variables/line_bene_prmry_pyr_cd",
            "code" : "E",
            "display" : "Workers' compensation"
          }
        }, {
          "url" : "https://bluebutton.cms.gov/resources/variables/line_prcsg_ind_cd",
          "valueCoding" : {
            "system" : "https://bluebutton.cms.gov/resources/variables/line_prcsg_ind_cd",
            "code" : "A",
            "display" : "Allowed"
          }
        }, {
          "url" : "https://bluebutton.cms.gov/resources/variables/line_service_deductible",
          "valueCoding" : {
            "system" : "https://bluebutton.cms.gov/resources/variables/line_service_deductible",
            "code" : "0",
            "display" : "Service Subject to Deductible"
          }
        } ],
        "sequence" : 6,
        "careTeamSequence" : [ 3, 4 ],
        "diagnosisSequence" : [ 5 ],
        "informationSequence" : [ 2 ],
        "category" : {
          "coding" : [ {
            "system" : "https://bluebutton.cms.gov/resources/variables/line_cms_type_srvc_cd",
            "code" : "1",
            "display" : "Medical care"
          } ]
        },
        "productOrService" : {
          "extension" : [ {
            "url" : "http://hl7.org/fhir/sid/ndc",
            "valueCoding" : {
              "system" : "http://hl7.org/fhir/sid/ndc",
              "code" : "49035044700"
            }
          } ],
          "coding" : [ {
            "system" : "https://bluebutton.cms.gov/resources/codesystem/hcpcs",
            "code" : "92999"
          } ]
        },
        "modifier" : [ {
          "coding" : [ {
            "system" : "https://bluebutton.cms.gov/resources/codesystem/hcpcs",
            "version" : "5",
            "code" : "LT"
          } ]
        } ],
        "servicedPeriod" : {
          "start" : "1999-10-27",
          "end" : "1999-10-27"
        },
        "locationCodeableConcept" : {
          "extension" : [ {
            "url" : "https://bluebutton.cms.gov/resources/variables/prvdr_state_cd",
            "valueCoding" : {
              "system" : "https://bluebutton.cms.gov/resources/variables/prvdr_state_cd",
              "code" : "IL"
            }
          }, {
            "url" : "https://bluebutton.cms.gov/resources/variables/prvdr_zip",
            "valueCoding" : {
              "system" : "https://bluebutton.cms.gov/resources/variables/prvdr_zip",
              "code" : "555558202"
            }
          }, {
            "url" : "https://bluebutton.cms.gov/resources/variables/carr_line_prcng_lclty_cd",
            "valueCoding" : {
              "system" : "https://bluebutton.cms.gov/resources/variables/carr_line_prcng_lclty_cd",
              "code" : "15",
              "display" : "CONNECTICUT"
            }
          }, {
            "url" : "https://bluebutton.cms.gov/resources/variables/carr_line_clia_lab_num",
            "valueIdentifier" : {
              "system" : "https://bluebutton.cms.gov/resources/variables/carr_line_clia_lab_num",
              "value" : "BB889999AA"
            }
          } ],
          "coding" : [ {
            "system" : "https://bluebutton.cms.gov/resources/variables/line_place_of_srvc_cd",
            "code" : "11",
            "display" : "Office. Location, other than a hospital, skilled nursing facility (SNF), military treatment facility, community health center, State or local public health clinic, or intermediate care facility (ICF), where the health professional routinely provides health examinations, diagnosis, and treatment of illness or injury on an ambulatory basis."
          } ]
        },
        "quantity" : {
          "value" : 1
        },
        "adjudication" : [ {
          "category" : {
            "coding" : [ {
              "system" : "http://hl7.org/fhir/us/carin-bb/CodeSystem/C4BBAdjudicationDiscriminator",
              "code" : "denialreason",
              "display" : "Denial Reason"
            } ]
          },
          "reason" : {
            "coding" : [ {
              "system" : "https://bluebutton.cms.gov/resources/variables/carr_line_rdcd_pmt_phys_astn_c",
              "code" : "0",
              "display" : "N/A"
            } ]
          }
        }, {
          "extension" : [ {
            "url" : "https://bluebutton.cms.gov/resources/variables/line_pmt_80_100_cd",
            "valueCoding" : {
              "system" : "https://bluebutton.cms.gov/resources/variables/line_pmt_80_100_cd",
              "code" : "0",
              "display" : "80%"
            }
          } ],
          "category" : {
            "coding" : [ {
              "system" : "http://terminology.hl7.org/CodeSystem/adjudication",
              "code" : "benefit",
              "display" : "Benefit Amount"
            }, {
              "system" : "https://bluebutton.cms.gov/resources/codesystem/adjudication",
              "code" : "https://bluebutton.cms.gov/resources/variables/line_nch_pmt_amt",
              "display" : "Line NCH Medicare Payment Amount"
            } ]
          },
          "amount" : {
            "value" : 37.5,
            "currency" : "USD"
          }
        }, {
          "category" : {
            "coding" : [ {
              "system" : "http://hl7.org/fhir/us/carin-bb/CodeSystem/C4BBAdjudication",
              "code" : "paidtopatient",
              "display" : "Paid to patient"
            }, {
              "system" : "https://bluebutton.cms.gov/resources/codesystem/adjudication",
              "code" : "https://bluebutton.cms.gov/resources/variables/line_bene_pmt_amt",
              "display" : "Line Payment Amount to Beneficiary"
            } ]
          },
          "amount" : {
            "value" : 0.0,
            "currency" : "USD"
          }
        }, {
          "category" : {
            "coding" : [ {
              "system" : "http://hl7.org/fhir/us/carin-bb/CodeSystem/C4BBAdjudication",
              "code" : "paidtoprovider",
              "display" : "Paid to provider"
            }, {
              "system" : "https://bluebutton.cms.gov/resources/codesystem/adjudication",
              "code" : "https://bluebutton.cms.gov/resources/variables/line_prvdr_pmt_amt",
              "display" : "Line Provider Payment Amount"
            } ]
          },
          "amount" : {
            "value" : 37.5,
            "currency" : "USD"
          }
        }, {
          "category" : {
            "coding" : [ {
              "system" : "http://terminology.hl7.org/CodeSystem/adjudication",
              "code" : "deductible",
              "display" : "Deductible"
            }, {
              "system" : "https://bluebutton.cms.gov/resources/codesystem/adjudication",
              "code" : "https://bluebutton.cms.gov/resources/variables/line_bene_ptb_ddctbl_amt",
              "display" : "Line Beneficiary Part B Deductible Amount"
            } ]
          },
          "amount" : {
            "value" : 0.0,
            "currency" : "USD"
          }
        }, {
          "category" : {
            "coding" : [ {
              "system" : "http://hl7.org/fhir/us/carin-bb/CodeSystem/C4BBAdjudication",
              "code" : "priorpayerpaid",
              "display" : "Prior payer paid"
            }, {
              "system" : "https://bluebutton.cms.gov/resources/codesystem/adjudication",
              "code" : "https://bluebutton.cms.gov/resources/variables/line_bene_prmry_pyr_pd_amt",
              "display" : "Line Primary Payer (if not Medicare) Paid Amount"
            } ]
          },
          "amount" : {
            "value" : 0.0,
            "currency" : "USD"
          }
        }, {
          "category" : {
            "coding" : [ {
              "system" : "http://hl7.org/fhir/us/carin-bb/CodeSystem/C4BBAdjudication",
              "code" : "coinsurance",
              "display" : "Co-insurance"
            }, {
              "system" : "https://bluebutton.cms.gov/resources/codesystem/adjudication",
              "code" : "https://bluebutton.cms.gov/resources/variables/line_coinsrnc_amt",
              "display" : "Line Beneficiary Coinsurance Amount"
            } ]
          },
          "amount" : {
            "value" : 9.57,
            "currency" : "USD"
          }
        }, {
          "category" : {
            "coding" : [ {
              "system" : "http://terminology.hl7.org/CodeSystem/adjudication",
              "code" : "submitted",
              "display" : "Submitted Amount"
            }, {
              "system" : "https://bluebutton.cms.gov/resources/codesystem/adjudication",
              "code" : "https://bluebutton.cms.gov/resources/variables/line_sbmtd_chrg_amt",
              "display" : "Line Submitted Charge Amount"
            } ]
          },
          "amount" : {
            "value" : 75.0,
            "currency" : "USD"
          }
        }, {
          "category" : {
            "coding" : [ {
              "system" : "http://terminology.hl7.org/CodeSystem/adjudication",
              "code" : "eligible",
              "display" : "Eligible Amount"
            }, {
              "system" : "https://bluebutton.cms.gov/resources/codesystem/adjudication",
              "code" : "https://bluebutton.cms.gov/resources/variables/line_alowd_chrg_amt",
              "display" : "Line Allowed Charge Amount"
            } ]
          },
          "amount" : {
            "value" : 75.0,
            "currency" : "USD"
          }
        } ]
      } ],
      "total" : [ {
        "category" : {
          "coding" : [ {
            "system" : "http://hl7.org/fhir/us/carin-bb/CodeSystem/C4BBAdjudication",
            "code" : "priorpayerpaid",
            "display" : "Prior payer paid"
          }, {
            "system" : "https://bluebutton.cms.gov/resources/codesystem/adjudication",
            "code" : "https://bluebutton.cms.gov/resources/variables/clm_tot_chrg_amt",
            "display" : "Claim Total Charge Amount"
          } ]
        },
        "amount" : {
          "value" : 0.0,
          "currency" : "USD"
        }
      } ],
      "payment" : {
        "amount" : {
          "value" : 199.99,
          "currency" : "USD"
        }
      },
      "benefitBalance" : [ {
        "category" : {
          "coding" : [ {
            "system" : "http://terminology.hl7.org/CodeSystem/ex-benefitcategory",
            "code" : "1",
            "display" : "Medical Care"
          } ]
        },
        "financial" : [ {
          "type" : {
            "coding" : [ {
              "system" : "https://bluebutton.cms.gov/resources/codesystem/benefit-balance",
              "code" : "https://bluebutton.cms.gov/resources/variables/carr_clm_cash_ddctbl_apld_amt",
              "display" : "Carrier Claim Cash Deductible Applied Amount (sum of all line-level deductible amounts)"
            } ]
          },
          "usedMoney" : {
            "value" : 777.0,
            "currency" : "USD"
          }
        }, {
          "type" : {
            "coding" : [ {
              "system" : "https://bluebutton.cms.gov/resources/codesystem/benefit-balance",
              "code" : "https://bluebutton.cms.gov/resources/variables/nch_clm_prvdr_pmt_amt",
              "display" : "NCH Claim Provider Payment Amount"
            } ]
          },
          "usedMoney" : {
            "value" : 123.45,
            "currency" : "USD"
          }
        }, {
          "type" : {
            "coding" : [ {
              "system" : "https://bluebutton.cms.gov/resources/codesystem/benefit-balance",
              "code" : "https://bluebutton.cms.gov/resources/variables/nch_clm_bene_pmt_amt",
              "display" : "NCH Claim Payment Amount to Beneficiary"
            } ]
          },
          "usedMoney" : {
            "value" : 888.0,
            "currency" : "USD"
          }
        }, {
          "type" : {
            "coding" : [ {
              "system" : "https://bluebutton.cms.gov/resources/codesystem/benefit-balance",
              "code" : "https://bluebutton.cms.gov/resources/variables/nch_carr_clm_sbmtd_chrg_amt",
              "display" : "NCH Carrier Claim Submitted Charge Amount (sum of all line-level submitted charges)"
            } ]
          },
          "usedMoney" : {
            "value" : 245.04,
            "currency" : "USD"
          }
        }, {
          "type" : {
            "coding" : [ {
              "system" : "https://bluebutton.cms.gov/resources/codesystem/benefit-balance",
              "code" : "https://bluebutton.cms.gov/resources/variables/nch_carr_clm_alowd_amt",
              "display" : "NCH Carrier Claim Allowed Charge Amount (sum of all line-level allowed charges)"
            } ]
          },
          "usedMoney" : {
            "value" : 166.23,
            "currency" : "USD"
          }
        } ]
      } ]
    }
  }, {
    "resource" : {
      "resourceType" : "ExplanationOfBenefit",
      "id" : "hospice-9992223422",
      "meta" : {
        "lastUpdated" : "IGNORED_FIELD",
        "profile" : [ "http://hl7.org/fhir/us/carin-bb/StructureDefinition/C4BB-ExplanationOfBenefit-Inpatient-Institutional" ]
      },
      "contained" : [ {
        "resourceType" : "Organization",
        "id" : "provider-org",
        "meta" : {
          "profile" : [ "http://hl7.org/fhir/us/carin-bb/StructureDefinition/C4BB-Organization" ]
        },
        "identifier" : [ {
          "type" : {
            "coding" : [ {
              "system" : "http://terminology.hl7.org/CodeSystem/v2-0203",
              "code" : "PRN"
            } ]
          },
          "value" : "12345"
        }, {
          "type" : {
            "coding" : [ {
              "system" : "http://hl7.org/fhir/us/carin-bb/CodeSystem/C4BBIdentifierType",
              "code" : "npi"
            } ]
          },
          "system" : "http://hl7.org/fhir/sid/us-npi",
          "value" : "999999999"
        } ],
        "active" : true
      } ],
      "extension" : [ {
        "url" : "https://bluebutton.cms.gov/resources/variables/nch_near_line_rec_ident_cd",
        "valueCoding" : {
          "system" : "https://bluebutton.cms.gov/resources/variables/nch_near_line_rec_ident_cd",
          "code" : "V",
          "display" : "Part A institutional claim record (inpatient [IP], skilled nursing facility [SNF], hospice [HOS], or home health agency [HHA])"
        }
      }, {
        "url" : "https://bluebutton.cms.gov/resources/variables/clm_mdcr_non_pmt_rsn_cd",
        "valueCoding" : {
          "system" : "https://bluebutton.cms.gov/resources/variables/clm_mdcr_non_pmt_rsn_cd",
          "code" : "P",
          "display" : "Payment requested"
        }
      }, {
        "url" : "https://bluebutton.cms.gov/resources/variables/clm_srvc_clsfctn_type_cd",
        "valueCoding" : {
          "system" : "https://bluebutton.cms.gov/resources/variables/clm_srvc_clsfctn_type_cd",
          "code" : "1"
        }
      } ],
      "identifier" : [ {
        "type" : {
          "coding" : [ {
            "system" : "http://hl7.org/fhir/us/carin-bb/CodeSystem/C4BBIdentifierType",
            "code" : "uc",
            "display" : "Unique Claim ID"
          } ]
        },
        "system" : "https://bluebutton.cms.gov/resources/variables/clm_id",
        "value" : "9992223422"
      }, {
        "type" : {
          "coding" : [ {
            "system" : "http://hl7.org/fhir/us/carin-bb/CodeSystem/C4BBIdentifierType",
            "code" : "uc",
            "display" : "Unique Claim ID"
          } ]
        },
        "system" : "https://bluebutton.cms.gov/resources/identifier/claim-group",
        "value" : "900"
      } ],
      "status" : "active",
      "type" : {
        "coding" : [ {
          "system" : "https://bluebutton.cms.gov/resources/variables/nch_clm_type_cd",
          "code" : "50",
          "display" : "Hospice claim"
        }, {
          "system" : "https://bluebutton.cms.gov/resources/codesystem/eob-type",
          "code" : "HOSPICE"
        }, {
          "system" : "http://terminology.hl7.org/CodeSystem/claim-type",
          "code" : "institutional",
          "display" : "Institutional"
        } ]
      },
      "use" : "claim",
      "patient" : {
        "reference" : "Patient/567834"
      },
      "billablePeriod" : {
        "start" : "2014-01-01",
        "end" : "2014-01-30"
      },
      "created" : "IGNORED_FIELD",
      "insurer" : {
        "identifier" : {
          "value" : "CMS"
        }
      },
      "provider" : {
        "reference" : "#provider-org"
      },
      "facility" : {
        "extension" : [ {
          "url" : "https://bluebutton.cms.gov/resources/variables/clm_fac_type_cd",
          "valueCoding" : {
            "system" : "https://bluebutton.cms.gov/resources/variables/clm_fac_type_cd",
            "code" : "8",
            "display" : "Ambulatory Surgery Center (ASC) or other special facility (e.g. hospice)"
          }
        } ]
      },
      "outcome" : "complete",
      "careTeam" : [ {
        "sequence" : 1,
        "provider" : {
          "identifier" : {
            "type" : {
              "coding" : [ {
                "system" : "http://hl7.org/fhir/us/carin-bb/CodeSystem/C4BBIdentifierType",
                "code" : "npi",
                "display" : "National Provider Identifier"
              } ]
            },
            "value" : "8888888888"
          }
        },
        "role" : {
          "coding" : [ {
            "system" : "http://hl7.org/fhir/us/carin-bb/CodeSystem/C4BBClaimCareTeamRole",
            "code" : "attending",
            "display" : "Attending"
          } ]
        }
      }, {
        "sequence" : 2,
        "provider" : {
          "identifier" : {
            "type" : {
              "coding" : [ {
                "system" : "http://terminology.hl7.org/CodeSystem/v2-0203",
                "code" : "UPIN",
                "display" : "Medicare/CMS (formerly HCFA)'s Universal Physician Identification numbers"
              } ]
            },
            "value" : "0"
          }
        },
        "role" : {
          "coding" : [ {
            "system" : "http://hl7.org/fhir/us/carin-bb/CodeSystem/C4BBClaimCareTeamRole",
            "code" : "performing",
            "display" : "Performing provider"
          } ]
        }
      }, {
        "sequence" : 3,
        "provider" : {
          "identifier" : {
            "type" : {
              "coding" : [ {
                "system" : "http://hl7.org/fhir/us/carin-bb/CodeSystem/C4BBIdentifierType",
                "code" : "npi",
                "display" : "National Provider Identifier"
              } ]
            },
            "value" : "345345345"
          }
        },
        "role" : {
          "coding" : [ {
            "system" : "http://hl7.org/fhir/us/carin-bb/CodeSystem/C4BBClaimCareTeamRole",
            "code" : "performing",
            "display" : "Performing provider"
          } ]
        }
      } ],
      "supportingInfo" : [ {
        "sequence" : 1,
        "category" : {
          "coding" : [ {
            "system" : "http://hl7.org/fhir/us/carin-bb/CodeSystem/C4BBSupportingInfoType",
            "code" : "clmrecvddate",
            "display" : "Claim Received Date"
          }, {
            "system" : "https://bluebutton.cms.gov/resources/codesystem/information",
            "code" : "https://bluebutton.cms.gov/resources/variables/nch_wkly_proc_dt",
            "display" : "NCH Weekly Claim Processing Date"
          } ]
        },
        "timingDate" : "2014-10-10"
      }, {
        "sequence" : 2,
        "category" : {
          "coding" : [ {
            "system" : "http://terminology.hl7.org/CodeSystem/claiminformationcategory",
            "code" : "info",
            "display" : "Information"
          }, {
            "system" : "https://bluebutton.cms.gov/resources/codesystem/information",
            "code" : "https://bluebutton.cms.gov/resources/variables/nch_ptnt_stus_ind_cd",
            "display" : "NCH Patient Status Indicator Code"
          } ]
        },
        "code" : {
          "coding" : [ {
            "system" : "https://bluebutton.cms.gov/resources/variables/nch_ptnt_stus_ind_cd",
            "code" : "C",
            "display" : "Still a patient"
          } ]
        }
      }, {
        "sequence" : 3,
        "category" : {
          "coding" : [ {
            "system" : "http://hl7.org/fhir/us/carin-bb/CodeSystem/C4BBSupportingInfoType",
            "code" : "admissionperiod",
            "display" : "Admission Period"
          } ]
        },
        "timingPeriod" : {
          "start" : "2014-07-06",
          "end" : "2015-06-29"
        }
      }, {
        "sequence" : 4,
        "category" : {
          "coding" : [ {
            "system" : "http://hl7.org/fhir/us/carin-bb/CodeSystem/C4BBSupportingInfoType",
            "code" : "typeofbill",
            "display" : "Type of Bill"
          } ]
        },
        "code" : {
          "coding" : [ {
            "system" : "https://bluebutton.cms.gov/resources/variables/clm_freq_cd",
            "code" : "1",
            "display" : "Admit thru discharge claim"
          } ]
        }
      }, {
        "sequence" : 5,
        "category" : {
          "coding" : [ {
            "system" : "http://hl7.org/fhir/us/carin-bb/CodeSystem/C4BBSupportingInfoType",
            "code" : "discharge-status",
            "display" : "Discharge Status"
          } ]
        },
        "code" : {
          "coding" : [ {
            "system" : "https://bluebutton.cms.gov/resources/variables/ptnt_dschrg_stus_cd",
            "code" : "1"
          } ]
        }
      }, {
        "sequence" : 6,
        "category" : {
          "coding" : [ {
            "system" : "http://terminology.hl7.org/CodeSystem/claiminformationcategory",
            "code" : "info",
            "display" : "Information"
          }, {
            "system" : "https://bluebutton.cms.gov/resources/codesystem/information",
            "code" : "https://bluebutton.cms.gov/resources/variables/nch_prmry_pyr_cd",
            "display" : "NCH Primary Payer Code (if not Medicare)"
          } ]
        },
        "code" : {
          "coding" : [ {
            "system" : "https://bluebutton.cms.gov/resources/variables/nch_prmry_pyr_cd",
            "code" : "A",
            "display" : "Employer group health plan (EGHP) insurance for an aged beneficiary"
          } ]
        }
      } ],
      "diagnosis" : [ {
        "sequence" : 1,
        "diagnosisCodeableConcept" : {
          "coding" : [ {
            "system" : "http://hl7.org/fhir/sid/icd-9-cm",
            "code" : "R5555"
          } ]
        },
        "type" : [ {
          "coding" : [ {
            "system" : "http://terminology.hl7.org/CodeSystem/ex-diagnosistype",
            "code" : "principal",
            "display" : "Principal Diagnosis"
          } ]
        } ]
      }, {
        "sequence" : 2,
        "diagnosisCodeableConcept" : {
          "coding" : [ {
            "system" : "http://hl7.org/fhir/sid/icd-10",
            "code" : "R6666"
          } ]
        },
        "type" : [ {
          "coding" : [ {
            "system" : "http://hl7.org/fhir/us/carin-bb/CodeSystem/C4BBClaimDiagnosisType",
            "code" : "other",
            "display" : "Other"
          } ]
        } ]
      }, {
        "sequence" : 3,
        "diagnosisCodeableConcept" : {
          "coding" : [ {
            "system" : "http://hl7.org/fhir/sid/icd-10",
            "code" : "R2222"
          } ]
        },
        "type" : [ {
          "coding" : [ {
            "system" : "http://hl7.org/fhir/us/carin-bb/CodeSystem/C4BBClaimDiagnosisType",
            "code" : "externalcauseofinjury",
            "display" : "External Cause of Injury"
          } ]
        } ]
      }, {
        "sequence" : 4,
        "diagnosisCodeableConcept" : {
          "coding" : [ {
            "system" : "http://hl7.org/fhir/sid/icd-10",
            "code" : "R3333"
          } ]
        },
        "type" : [ {
          "coding" : [ {
            "system" : "http://hl7.org/fhir/us/carin-bb/CodeSystem/C4BBClaimDiagnosisType",
            "code" : "externalcauseofinjury",
            "display" : "External Cause of Injury"
          } ]
        } ]
      } ],
      "insurance" : [ {
        "coverage" : {
          "reference" : "Coverage/part-a-567834"
        }
      } ],
      "item" : [ {
        "sequence" : 1,
        "careTeamSequence" : [ 2, 3 ],
        "revenue" : {
          "coding" : [ {
            "system" : "https://bluebutton.cms.gov/resources/variables/rev_cntr",
            "code" : "651"
          }, {
            "system" : "https://www.nubc.org/CodeSystem/RevenueCodes",
            "code" : "0"
          }, {
            "system" : "https://bluebutton.cms.gov/resources/variables/rev_cntr_ddctbl_coinsrnc_cd",
            "code" : "0",
            "display" : "Charges are subject to deductible and coinsurance"
          } ]
        },
        "productOrService" : {
          "coding" : [ {
            "system" : "https://bluebutton.cms.gov/resources/codesystem/hcpcs",
            "code" : "A5C"
          } ]
        },
        "modifier" : [ {
          "coding" : [ {
            "system" : "https://bluebutton.cms.gov/resources/variables/rev_cntr_ndc_qty_qlfr_cd",
            "code" : "B"
          } ]
        }, {
          "coding" : [ {
            "system" : "https://bluebutton.cms.gov/resources/codesystem/hcpcs",
            "code" : "Q9999"
          } ]
        } ],
        "servicedDate" : "2014-09-01",
        "locationAddress" : {
          "state" : "AZ"
        },
        "quantity" : {
          "value" : 5454
        },
        "adjudication" : [ {
          "category" : {
            "coding" : [ {
              "system" : "http://terminology.hl7.org/CodeSystem/adjudication",
              "code" : "submitted",
              "display" : "Submitted Amount"
            }, {
              "system" : "https://bluebutton.cms.gov/resources/codesystem/adjudication",
              "code" : "https://bluebutton.cms.gov/resources/variables/rev_cntr_rate_amt",
              "display" : "Revenue Center Rate Amount"
            } ]
          },
          "amount" : {
            "value" : 0.0,
            "currency" : "USD"
          }
        }, {
          "category" : {
            "coding" : [ {
              "system" : "http://terminology.hl7.org/CodeSystem/adjudication",
              "code" : "submitted",
              "display" : "Submitted Amount"
            }, {
              "system" : "https://bluebutton.cms.gov/resources/codesystem/adjudication",
              "code" : "https://bluebutton.cms.gov/resources/variables/rev_cntr_tot_chrg_amt",
              "display" : "Revenue Center Total Charge Amount"
            } ]
          },
          "amount" : {
            "value" : 2555.0,
            "currency" : "USD"
          }
        }, {
          "category" : {
            "coding" : [ {
              "system" : "http://hl7.org/fhir/us/carin-bb/CodeSystem/C4BBAdjudication",
              "code" : "noncovered",
              "display" : "Noncovered"
            }, {
              "system" : "https://bluebutton.cms.gov/resources/codesystem/adjudication",
              "code" : "https://bluebutton.cms.gov/resources/variables/rev_cntr_ncvrd_chrg_amt",
              "display" : "Revenue Center Non-Covered Charge Amount"
            } ]
          },
          "amount" : {
            "value" : 300.0,
            "currency" : "USD"
          }
        }, {
          "category" : {
            "coding" : [ {
              "system" : "http://hl7.org/fhir/us/carin-bb/CodeSystem/C4BBAdjudication",
              "code" : "paidtoprovider",
              "display" : "Paid to provider"
            }, {
              "system" : "https://bluebutton.cms.gov/resources/codesystem/adjudication",
              "code" : "https://bluebutton.cms.gov/resources/variables/rev_cntr_prvdr_pmt_amt",
              "display" : "Revenue Center (Medicare) Provider Payment Amount"
            } ]
          },
          "amount" : {
            "value" : 29.0,
            "currency" : "USD"
          }
        }, {
          "category" : {
            "coding" : [ {
              "system" : "http://hl7.org/fhir/us/carin-bb/CodeSystem/C4BBAdjudication",
              "code" : "paidtopatient",
              "display" : "Paid to patient"
            }, {
              "system" : "https://bluebutton.cms.gov/resources/codesystem/adjudication",
              "code" : "https://bluebutton.cms.gov/resources/variables/rev_cntr_bene_pmt_amt",
              "display" : "Revenue Center Payment Amount to Beneficiary"
            } ]
          },
          "amount" : {
            "value" : 28.0,
            "currency" : "USD"
          }
        }, {
          "category" : {
            "coding" : [ {
              "system" : "http://terminology.hl7.org/CodeSystem/adjudication",
              "code" : "submitted",
              "display" : "Submitted Amount"
            }, {
              "system" : "https://bluebutton.cms.gov/resources/codesystem/adjudication",
              "code" : "https://bluebutton.cms.gov/resources/variables/rev_cntr_pmt_amt_amt",
              "display" : "Revenue Center (Medicare) Payment Amount"
            } ]
          },
          "amount" : {
            "value" : 26.0,
            "currency" : "USD"
          }
        } ]
      } ],
      "total" : [ {
        "category" : {
          "coding" : [ {
            "system" : "http://terminology.hl7.org/CodeSystem/adjudication",
            "code" : "submitted",
            "display" : "Submitted Amount"
          }, {
            "system" : "https://bluebutton.cms.gov/resources/codesystem/adjudication",
            "code" : "https://bluebutton.cms.gov/resources/variables/clm_tot_chrg_amt",
            "display" : "Claim Total Charge Amount"
          } ]
        },
        "amount" : {
          "value" : 199.99,
          "currency" : "USD"
        }
      } ],
      "payment" : {
        "amount" : {
          "value" : 130.32,
          "currency" : "USD"
        }
      },
      "benefitBalance" : [ {
        "category" : {
          "coding" : [ {
            "system" : "http://terminology.hl7.org/CodeSystem/ex-benefitcategory",
            "code" : "1",
            "display" : "Medical Care"
          } ]
        },
        "financial" : [ {
          "type" : {
            "coding" : [ {
              "system" : "https://bluebutton.cms.gov/resources/codesystem/benefit-balance",
              "code" : "https://bluebutton.cms.gov/resources/variables/clm_utlztn_day_cnt",
              "display" : "Claim Medicare Utilization Day Count"
            } ]
          },
          "usedUnsignedInt" : 30
        }, {
          "type" : {
            "coding" : [ {
              "system" : "https://bluebutton.cms.gov/resources/codesystem/benefit-balance",
              "code" : "https://bluebutton.cms.gov/resources/variables/prpayamt",
              "display" : "NCH Primary Payer (if not Medicare) Claim Paid Amount"
            } ]
          },
          "usedMoney" : {
            "value" : 0.0,
            "currency" : "USD"
          }
        } ]
      } ]
    }
  } ]
}