{
  "resourceType" : "ExplanationOfBenefit",
  "id" : "carrier-9991831999",
  "meta" : {
    "lastUpdated" : "IGNORED_FIELD",
    "profile" : [ "http://hl7.org/fhir/us/carin-bb/StructureDefinition/C4BB-ExplanationOfBenefit-Professional-NonClinician" ]
  },
  "contained" : [ {
    "resourceType" : "Observation",
    "id" : "line-observation-6",
    "status" : "unknown",
    "code" : {
      "coding" : [ {
        "system" : "https://bluebutton.cms.gov/resources/variables/line_hct_hgb_type_cd",
        "code" : "R1",
        "display" : "Hemoglobin Test"
      } ]
    },
    "valueQuantity" : {
      "value" : 42.0
    }
  }, {
    "resourceType" : "Practitioner",
    "id" : "practitioner-99918319996",
    "identifier" : [ {
      "type" : {
        "coding" : [ {
          "system" : "http://hl7.org/fhir/us/carin-bb/CodeSystem/C4BBIdentifierType",
          "code" : "npi",
          "display" : "National Provider Identifier"
        } ]
      },
      "value" : "1923124"
    }, {
      "type" : {
        "coding" : [ {
          "system" : "http://terminology.hl7.org/CodeSystem/v2-0203",
          "code" : "PIN",
          "display" : "Premises Identifier Number (US Official)"
        } ]
      },
      "value" : "K25555"
    } ]
  } ],
  "extension" : [ {
    "url" : "https://bluebutton.cms.gov/resources/variables/nch_near_line_rec_ident_cd",
    "valueCoding" : {
      "system" : "https://bluebutton.cms.gov/resources/variables/nch_near_line_rec_ident_cd",
      "code" : "O",
      "display" : "Part B physician/supplier claim record (processed by local carriers; can include DMEPOS services)"
    }
  }, {
    "url" : "https://bluebutton.cms.gov/resources/variables/carr_num",
    "valueIdentifier" : {
      "system" : "https://bluebutton.cms.gov/resources/variables/carr_num",
      "value" : "61026"
    }
  }, {
    "url" : "https://bluebutton.cms.gov/resources/variables/carr_clm_cntl_num",
    "valueIdentifier" : {
      "system" : "https://bluebutton.cms.gov/resources/variables/carr_clm_cntl_num",
      "value" : "74655592568216"
    }
  }, {
    "url" : "https://bluebutton.cms.gov/resources/variables/carr_clm_pmt_dnl_cd",
    "valueCoding" : {
      "system" : "https://bluebutton.cms.gov/resources/variables/carr_clm_pmt_dnl_cd",
      "code" : "1",
      "display" : "Physician/supplier"
    }
  }, {
    "url" : "https://bluebutton.cms.gov/resources/variables/asgmntcd",
    "valueCoding" : {
      "system" : "https://bluebutton.cms.gov/resources/variables/asgmntcd",
      "code" : "A",
      "display" : "Assigned claim"
    }
  }, {
    "url" : "https://bluebutton.cms.gov/resources/variables/clm_clncl_tril_num",
    "valueIdentifier" : {
      "system" : "https://bluebutton.cms.gov/resources/variables/clm_clncl_tril_num",
      "value" : "0"
    }
  }, {
    "url" : "https://bluebutton.cms.gov/resources/variables/carr_clm_entry_cd",
    "valueCoding" : {
      "system" : "https://bluebutton.cms.gov/resources/variables/carr_clm_entry_cd",
      "code" : "1",
      "display" : "Original debit; void of original debit (If CLM_DISP_CD = 3, code 1 means voided original debit)"
    }
  } ],
  "identifier" : [ {
    "type" : {
      "coding" : [ {
        "system" : "http://hl7.org/fhir/us/carin-bb/CodeSystem/C4BBIdentifierType",
        "code" : "uc",
        "display" : "Unique Claim ID"
      } ]
    },
    "system" : "https://bluebutton.cms.gov/resources/variables/clm_id",
    "value" : "9991831999"
  }, {
    "type" : {
      "coding" : [ {
        "system" : "http://hl7.org/fhir/us/carin-bb/CodeSystem/C4BBIdentifierType",
        "code" : "uc",
        "display" : "Unique Claim ID"
      } ]
    },
    "system" : "https://bluebutton.cms.gov/resources/identifier/claim-group",
    "value" : "900"
  } ],
  "status" : "active",
  "type" : {
    "coding" : [ {
      "system" : "https://bluebutton.cms.gov/resources/variables/nch_clm_type_cd",
      "code" : "71",
      "display" : "Local carrier non-durable medical equipment, prosthetics, orthotics, and supplies (DMEPOS) claim"
    }, {
      "system" : "https://bluebutton.cms.gov/resources/codesystem/eob-type",
      "code" : "CARRIER"
    }, {
      "system" : "http://terminology.hl7.org/CodeSystem/claim-type",
      "code" : "professional",
      "display" : "Professional"
    } ]
  },
  "use" : "claim",
  "patient" : {
    "reference" : "Patient/567834"
  },
  "billablePeriod" : {
    "start" : "1999-10-27",
    "end" : "1999-10-27"
  },
  "created" : "IGNORED_FIELD",
  "insurer" : {
    "identifier" : {
      "value" : "CMS"
    }
  },
  "referral" : {
    "identifier" : {
      "type" : {
        "coding" : [ {
          "system" : "http://hl7.org/fhir/us/carin-bb/CodeSystem/C4BBIdentifierType",
          "code" : "npi",
          "display" : "National Provider Identifier"
        } ]
      },
      "value" : "8765676"
    }
  },
  "outcome" : "complete",
  "disposition" : "1",
  "careTeam" : [ {
    "sequence" : 1,
    "provider" : {
      "identifier" : {
        "type" : {
          "coding" : [ {
            "system" : "http://hl7.org/fhir/us/carin-bb/CodeSystem/C4BBIdentifierType",
            "code" : "npi",
            "display" : "National Provider Identifier"
          } ]
        },
        "value" : "8765676"
      }
    },
    "role" : {
      "coding" : [ {
        "system" : "http://hl7.org/fhir/us/carin-bb/CodeSystem/C4BBClaimCareTeamRole",
        "code" : "referring",
        "display" : "Referring"
      } ]
    }
  }, {
    "sequence" : 2,
    "provider" : {
      "identifier" : {
        "type" : {
          "coding" : [ {
            "system" : "http://hl7.org/fhir/us/carin-bb/CodeSystem/C4BBIdentifierType",
            "code" : "npi",
            "display" : "National Provider Identifier"
          } ]
        },
        "value" : "K25852"
      }
    },
    "role" : {
      "coding" : [ {
        "system" : "http://hl7.org/fhir/us/carin-bb/CodeSystem/C4BBClaimCareTeamRole",
        "code" : "referring",
        "display" : "Referring"
      } ]
    }
  }, {
    "extension" : [ {
      "url" : "https://bluebutton.cms.gov/resources/variables/carr_line_prvdr_type_cd",
      "valueCoding" : {
        "system" : "https://bluebutton.cms.gov/resources/variables/carr_line_prvdr_type_cd",
        "code" : "0"
      }
    }, {
      "url" : "https://bluebutton.cms.gov/resources/variables/prtcptng_ind_cd",
      "valueCoding" : {
        "system" : "https://bluebutton.cms.gov/resources/variables/prtcptng_ind_cd",
        "code" : "1",
        "display" : "Participating"
      }
    } ],
    "sequence" : 3,
    "provider" : {
      "id" : "#practitioner-99918319996",
      "reference" : "#practitioner-99918319996"
    },
    "responsible" : true,
    "role" : {
      "coding" : [ {
        "system" : "http://hl7.org/fhir/us/carin-bb/CodeSystem/C4BBClaimCareTeamRole",
        "code" : "performing",
        "display" : "Performing provider"
      } ]
    },
    "qualification" : {
      "coding" : [ {
        "system" : "https://bluebutton.cms.gov/resources/variables/prvdr_spclty",
        "code" : "41",
        "display" : "Optometrist"
      } ]
    }
  }, {
    "sequence" : 4,
    "provider" : {
      "identifier" : {
        "type" : {
          "coding" : [ {
            "system" : "http://hl7.org/fhir/us/carin-bb/CodeSystem/C4BBIdentifierType",
            "code" : "npi",
            "display" : "National Provider Identifier"
          } ]
        },
        "value" : "1497758544"
      },
      "display" : "CUMBERLAND COUNTY HOSPITAL SYSTEM, INC"
    },
    "role" : {
      "coding" : [ {
        "system" : "http://terminology.hl7.org/CodeSystem/claimcareteamrole",
        "code" : "primary",
        "display" : "Primary provider"
      } ]
    }
  } ],
  "supportingInfo" : [ {
    "sequence" : 1,
    "category" : {
      "coding" : [ {
        "system" : "http://hl7.org/fhir/us/carin-bb/CodeSystem/C4BBSupportingInfoType",
        "code" : "clmrecvddate",
        "display" : "Claim Received Date"
      }, {
        "system" : "https://bluebutton.cms.gov/resources/codesystem/information",
        "code" : "https://bluebutton.cms.gov/resources/variables/nch_wkly_proc_dt",
        "display" : "NCH Weekly Claim Processing Date"
      } ]
    },
    "timingDate" : "1999-11-06"
  }, {
    "sequence" : 2,
    "category" : {
      "coding" : [ {
        "system" : "http://terminology.hl7.org/CodeSystem/claiminformationcategory",
        "code" : "info",
        "display" : "Information"
      }, {
        "system" : "https://bluebutton.cms.gov/resources/codesystem/information",
        "code" : "https://bluebutton.cms.gov/resources/variables/line_hct_hgb_rslt_num",
        "display" : "Hematocrit / Hemoglobin Test Results"
      } ]
    },
    "valueReference" : {
      "reference" : "#line-observation-6"
    }
  } ],
  "diagnosis" : [ {
    "sequence" : 1,
    "diagnosisCodeableConcept" : {
      "coding" : [ {
        "system" : "http://hl7.org/fhir/sid/icd-10",
        "code" : "H5555"
      } ]
    },
    "type" : [ {
      "coding" : [ {
        "system" : "http://terminology.hl7.org/CodeSystem/ex-diagnosistype",
        "code" : "principal",
        "display" : "principal"
      } ]
    } ]
  }, {
    "sequence" : 2,
    "diagnosisCodeableConcept" : {
      "coding" : [ {
        "system" : "http://hl7.org/fhir/sid/icd-10",
        "code" : "H8888"
      } ]
    },
    "type" : [ {
      "coding" : [ {
        "system" : "http://hl7.org/fhir/us/carin-bb/CodeSystem/C4BBClaimDiagnosisType",
        "code" : "secondary",
        "display" : "Secondary"
      } ]
    } ]
  }, {
    "sequence" : 3,
    "diagnosisCodeableConcept" : {
      "coding" : [ {
        "system" : "http://hl7.org/fhir/sid/icd-10",
        "code" : "H66666"
      } ]
    },
    "type" : [ {
      "coding" : [ {
        "system" : "http://hl7.org/fhir/us/carin-bb/CodeSystem/C4BBClaimDiagnosisType",
        "code" : "secondary",
        "display" : "Secondary"
      } ]
    } ]
  }, {
    "sequence" : 4,
    "diagnosisCodeableConcept" : {
      "coding" : [ {
        "system" : "http://hl7.org/fhir/sid/icd-10",
        "code" : "H77777"
      } ]
    },
    "type" : [ {
      "coding" : [ {
        "system" : "http://hl7.org/fhir/us/carin-bb/CodeSystem/C4BBClaimDiagnosisType",
        "code" : "secondary",
        "display" : "Secondary"
      } ]
    } ]
  }, {
    "sequence" : 5,
    "diagnosisCodeableConcept" : {
      "coding" : [ {
        "system" : "http://hl7.org/fhir/sid/icd-10",
        "code" : "H12345"
      } ]
    },
    "type" : [ {
      "coding" : [ {
        "system" : "http://hl7.org/fhir/us/carin-bb/CodeSystem/C4BBClaimDiagnosisType",
        "code" : "secondary",
        "display" : "Secondary"
      } ]
    } ]
  } ],
  "insurance" : [ {
    "coverage" : {
      "reference" : "Coverage/part-b-567834"
    }
  } ],
  "item" : [ {
    "extension" : [ {
      "url" : "https://bluebutton.cms.gov/resources/variables/carr_line_mtus_cnt",
      "valueQuantity" : {
        "value" : 1
      }
    }, {
      "url" : "https://bluebutton.cms.gov/resources/variables/carr_line_mtus_cnt",
      "valueCoding" : {
        "system" : "https://bluebutton.cms.gov/resources/variables/carr_line_mtus_cnt",
        "code" : "3"
      }
    }, {
      "url" : "https://bluebutton.cms.gov/resources/variables/betos_cd",
      "valueCoding" : {
        "system" : "https://bluebutton.cms.gov/resources/variables/betos_cd",
        "code" : "T2D",
        "display" : "Other tests - other"
      }
    }, {
      "url" : "https://bluebutton.cms.gov/resources/variables/line_bene_prmry_pyr_cd",
      "valueCoding" : {
        "system" : "https://bluebutton.cms.gov/resources/variables/line_bene_prmry_pyr_cd",
        "code" : "E",
        "display" : "Workers' compensation"
      }
    }, {
      "url" : "https://bluebutton.cms.gov/resources/variables/line_prcsg_ind_cd",
      "valueCoding" : {
        "system" : "https://bluebutton.cms.gov/resources/variables/line_prcsg_ind_cd",
        "code" : "A",
        "display" : "Allowed"
      }
    }, {
      "url" : "https://bluebutton.cms.gov/resources/variables/line_service_deductible",
      "valueCoding" : {
        "system" : "https://bluebutton.cms.gov/resources/variables/line_service_deductible",
        "code" : "0",
        "display" : "Service Subject to Deductible"
      }
    } ],
    "sequence" : 6,
    "careTeamSequence" : [ 3, 4 ],
    "diagnosisSequence" : [ 5 ],
    "informationSequence" : [ 2 ],
    "category" : {
      "coding" : [ {
        "system" : "https://bluebutton.cms.gov/resources/variables/line_cms_type_srvc_cd",
        "code" : "1",
        "display" : "Medical care"
      } ]
    },
    "productOrService" : {
      "extension" : [ {
        "url" : "http://hl7.org/fhir/sid/ndc",
        "valueCoding" : {
          "system" : "http://hl7.org/fhir/sid/ndc",
          "code" : "49035044700"
        }
      } ],
      "coding" : [ {
        "system" : "https://bluebutton.cms.gov/resources/codesystem/hcpcs",
        "code" : "92999"
      } ]
    },
    "modifier" : [ {
      "coding" : [ {
        "system" : "https://bluebutton.cms.gov/resources/codesystem/hcpcs",
        "version" : "5",
        "code" : "LT"
      } ]
    } ],
    "servicedPeriod" : {
      "start" : "1999-10-27",
      "end" : "1999-10-27"
    },
    "locationCodeableConcept" : {
      "extension" : [ {
        "url" : "https://bluebutton.cms.gov/resources/variables/prvdr_state_cd",
        "valueCoding" : {
          "system" : "https://bluebutton.cms.gov/resources/variables/prvdr_state_cd",
          "code" : "IL"
        }
      }, {
        "url" : "https://bluebutton.cms.gov/resources/variables/prvdr_zip",
        "valueCoding" : {
          "system" : "https://bluebutton.cms.gov/resources/variables/prvdr_zip",
          "code" : "555558202"
        }
      }, {
        "url" : "https://bluebutton.cms.gov/resources/variables/carr_line_prcng_lclty_cd",
        "valueCoding" : {
          "system" : "https://bluebutton.cms.gov/resources/variables/carr_line_prcng_lclty_cd",
          "code" : "15",
          "display" : "CONNECTICUT"
        }
      }, {
        "url" : "https://bluebutton.cms.gov/resources/variables/carr_line_clia_lab_num",
        "valueIdentifier" : {
          "system" : "https://bluebutton.cms.gov/resources/variables/carr_line_clia_lab_num",
          "value" : "BB889999AA"
        }
      } ],
      "coding" : [ {
        "system" : "https://bluebutton.cms.gov/resources/variables/line_place_of_srvc_cd",
        "code" : "11",
        "display" : "Office. Location, other than a hospital, skilled nursing facility (SNF), military treatment facility, community health center, State or local public health clinic, or intermediate care facility (ICF), where the health professional routinely provides health examinations, diagnosis, and treatment of illness or injury on an ambulatory basis."
      } ]
    },
    "quantity" : {
      "value" : 1
    },
    "adjudication" : [ {
      "category" : {
        "coding" : [ {
          "system" : "http://hl7.org/fhir/us/carin-bb/CodeSystem/C4BBAdjudicationDiscriminator",
          "code" : "denialreason",
          "display" : "Denial Reason"
        } ]
      },
      "reason" : {
        "coding" : [ {
          "system" : "https://bluebutton.cms.gov/resources/variables/carr_line_rdcd_pmt_phys_astn_c",
          "code" : "0",
          "display" : "N/A"
        } ]
      }
    }, {
      "extension" : [ {
        "url" : "https://bluebutton.cms.gov/resources/variables/line_pmt_80_100_cd",
        "valueCoding" : {
          "system" : "https://bluebutton.cms.gov/resources/variables/line_pmt_80_100_cd",
          "code" : "0",
          "display" : "80%"
        }
      } ],
      "category" : {
        "coding" : [ {
          "system" : "http://terminology.hl7.org/CodeSystem/adjudication",
          "code" : "benefit",
          "display" : "Benefit Amount"
        }, {
          "system" : "https://bluebutton.cms.gov/resources/codesystem/adjudication",
          "code" : "https://bluebutton.cms.gov/resources/variables/line_nch_pmt_amt",
          "display" : "Line NCH Medicare Payment Amount"
        } ]
      },
      "amount" : {
        "value" : 37.5,
        "currency" : "USD"
      }
    }, {
      "category" : {
        "coding" : [ {
          "system" : "http://hl7.org/fhir/us/carin-bb/CodeSystem/C4BBAdjudication",
          "code" : "paidtopatient",
          "display" : "Paid to patient"
        }, {
          "system" : "https://bluebutton.cms.gov/resources/codesystem/adjudication",
          "code" : "https://bluebutton.cms.gov/resources/variables/line_bene_pmt_amt",
          "display" : "Line Payment Amount to Beneficiary"
        } ]
      },
      "amount" : {
        "value" : 0.0,
        "currency" : "USD"
      }
    }, {
      "category" : {
        "coding" : [ {
          "system" : "http://hl7.org/fhir/us/carin-bb/CodeSystem/C4BBAdjudication",
          "code" : "paidtoprovider",
          "display" : "Paid to provider"
        }, {
          "system" : "https://bluebutton.cms.gov/resources/codesystem/adjudication",
          "code" : "https://bluebutton.cms.gov/resources/variables/line_prvdr_pmt_amt",
          "display" : "Line Provider Payment Amount"
        } ]
      },
      "amount" : {
        "value" : 37.5,
        "currency" : "USD"
      }
    }, {
      "category" : {
        "coding" : [ {
          "system" : "http://terminology.hl7.org/CodeSystem/adjudication",
          "code" : "deductible",
          "display" : "Deductible"
        }, {
          "system" : "https://bluebutton.cms.gov/resources/codesystem/adjudication",
          "code" : "https://bluebutton.cms.gov/resources/variables/line_bene_ptb_ddctbl_amt",
          "display" : "Line Beneficiary Part B Deductible Amount"
        } ]
      },
      "amount" : {
        "value" : 0.0,
        "currency" : "USD"
      }
    }, {
      "category" : {
        "coding" : [ {
          "system" : "http://hl7.org/fhir/us/carin-bb/CodeSystem/C4BBAdjudication",
          "code" : "priorpayerpaid",
          "display" : "Prior payer paid"
        }, {
          "system" : "https://bluebutton.cms.gov/resources/codesystem/adjudication",
          "code" : "https://bluebutton.cms.gov/resources/variables/line_bene_prmry_pyr_pd_amt",
          "display" : "Line Primary Payer (if not Medicare) Paid Amount"
        } ]
      },
      "amount" : {
        "value" : 0.0,
        "currency" : "USD"
      }
    }, {
      "category" : {
        "coding" : [ {
          "system" : "http://hl7.org/fhir/us/carin-bb/CodeSystem/C4BBAdjudication",
          "code" : "coinsurance",
          "display" : "Co-insurance"
        }, {
          "system" : "https://bluebutton.cms.gov/resources/codesystem/adjudication",
          "code" : "https://bluebutton.cms.gov/resources/variables/line_coinsrnc_amt",
          "display" : "Line Beneficiary Coinsurance Amount"
        } ]
      },
      "amount" : {
        "value" : 9.57,
        "currency" : "USD"
      }
    }, {
      "category" : {
        "coding" : [ {
          "system" : "http://terminology.hl7.org/CodeSystem/adjudication",
          "code" : "submitted",
          "display" : "Submitted Amount"
        }, {
          "system" : "https://bluebutton.cms.gov/resources/codesystem/adjudication",
          "code" : "https://bluebutton.cms.gov/resources/variables/line_sbmtd_chrg_amt",
          "display" : "Line Submitted Charge Amount"
        } ]
      },
      "amount" : {
        "value" : 75.0,
        "currency" : "USD"
      }
    }, {
      "category" : {
        "coding" : [ {
          "system" : "http://terminology.hl7.org/CodeSystem/adjudication",
          "code" : "eligible",
          "display" : "Eligible Amount"
        }, {
          "system" : "https://bluebutton.cms.gov/resources/codesystem/adjudication",
          "code" : "https://bluebutton.cms.gov/resources/variables/line_alowd_chrg_amt",
          "display" : "Line Allowed Charge Amount"
        } ]
      },
      "amount" : {
        "value" : 75.0,
        "currency" : "USD"
      }
    } ]
  } ],
  "total" : [ {
    "category" : {
      "coding" : [ {
        "system" : "http://hl7.org/fhir/us/carin-bb/CodeSystem/C4BBAdjudication",
        "code" : "priorpayerpaid",
        "display" : "Prior payer paid"
      }, {
        "system" : "https://bluebutton.cms.gov/resources/codesystem/adjudication",
        "code" : "https://bluebutton.cms.gov/resources/variables/clm_tot_chrg_amt",
        "display" : "Claim Total Charge Amount"
      } ]
    },
    "amount" : {
      "value" : 0.0,
      "currency" : "USD"
    }
  } ],
  "payment" : {
    "amount" : {
      "value" : 199.99,
      "currency" : "USD"
    }
  },
  "benefitBalance" : [ {
    "category" : {
      "coding" : [ {
        "system" : "http://terminology.hl7.org/CodeSystem/ex-benefitcategory",
        "code" : "1",
        "display" : "Medical Care"
      } ]
    },
    "financial" : [ {
      "type" : {
        "coding" : [ {
          "system" : "https://bluebutton.cms.gov/resources/codesystem/benefit-balance",
          "code" : "https://bluebutton.cms.gov/resources/variables/carr_clm_cash_ddctbl_apld_amt",
          "display" : "Carrier Claim Cash Deductible Applied Amount (sum of all line-level deductible amounts)"
        } ]
      },
      "usedMoney" : {
        "value" : 777.0,
        "currency" : "USD"
      }
    }, {
      "type" : {
        "coding" : [ {
          "system" : "https://bluebutton.cms.gov/resources/codesystem/benefit-balance",
          "code" : "https://bluebutton.cms.gov/resources/variables/nch_clm_prvdr_pmt_amt",
          "display" : "NCH Claim Provider Payment Amount"
        } ]
      },
      "usedMoney" : {
        "value" : 123.45,
        "currency" : "USD"
      }
    }, {
      "type" : {
        "coding" : [ {
          "system" : "https://bluebutton.cms.gov/resources/codesystem/benefit-balance",
          "code" : "https://bluebutton.cms.gov/resources/variables/nch_clm_bene_pmt_amt",
          "display" : "NCH Claim Payment Amount to Beneficiary"
        } ]
      },
      "usedMoney" : {
        "value" : 888.0,
        "currency" : "USD"
      }
    }, {
      "type" : {
        "coding" : [ {
          "system" : "https://bluebutton.cms.gov/resources/codesystem/benefit-balance",
          "code" : "https://bluebutton.cms.gov/resources/variables/nch_carr_clm_sbmtd_chrg_amt",
          "display" : "NCH Carrier Claim Submitted Charge Amount (sum of all line-level submitted charges)"
        } ]
      },
      "usedMoney" : {
        "value" : 245.04,
        "currency" : "USD"
      }
    }, {
      "type" : {
        "coding" : [ {
          "system" : "https://bluebutton.cms.gov/resources/codesystem/benefit-balance",
          "code" : "https://bluebutton.cms.gov/resources/variables/nch_carr_clm_alowd_amt",
          "display" : "NCH Carrier Claim Allowed Charge Amount (sum of all line-level allowed charges)"
        } ]
      },
      "usedMoney" : {
        "value" : 166.23,
        "currency" : "USD"
      }
    } ]
  } ]
}