{
  "resourceType" : "ExplanationOfBenefit",
  "meta" : {
    "lastUpdated" : "2025-01-07T03:02:28.000000Z",
    "source" : "NCH",
    "profile" : ["http://hl7.org/fhir/us/carin-bb/StructureDefinition/C4BB-ExplanationOfBenefit-Inpatient-Institutional|2.1.0"],
    "tag" : [{
      "system" : "https://bluebutton.cms.gov/fhir/CodeSystem/System-Type",
      "code" : "NationalClaimsHistory"
    },
    {
      "system" : "https://bluebutton.cms.gov/fhir/CodeSystem/Final-Action",
      "code" : "FinalAction"
    }]
  },
  "contained" : [{
    "resourceType" : "Organization",
    "id" : "insurer-org",
    "meta" : {
      "profile" : ["http://hl7.org/fhir/us/carin-bb/StructureDefinition/C4BB-Organization|2.1.0",
      "http://hl7.org/fhir/us/core/StructureDefinition/us-core-organization|6.1.0"]
    },
    "active" : true,
    "name" : "Centers for Medicare & Medicaid Services"
  },
  {
    "resourceType" : "Organization",
    "id" : "1548226988",
    "meta" : {
      "profile" : ["http://hl7.org/fhir/us/carin-bb/StructureDefinition/C4BB-Organization|2.1.0",
      "http://hl7.org/fhir/us/core/StructureDefinition/us-core-organization|6.1.0"]
    },
    "identifier" : [{
      "type" : {
        "coding" : [{
          "system" : "http://terminology.hl7.org/CodeSystem/v2-0203",
          "code" : "NPI",
          "display" : "National provider identifier"
        }]
      },
      "system" : "http://hl7.org/fhir/sid/us-npi",
      "value" : "1548226988"
    },
    {
      "system" : "http://terminology.hl7.org/NamingSystem/CCN",
      "value" : "00024"
    },
    {
      "type" : {
        "coding" : [{
          "system" : "http://terminology.hl7.org/CodeSystem/v2-0203",
          "code" : "TAX",
          "display" : "Tax ID number"
        }]
      },
      "system" : "urn:oid:2.16.840.1.113883.4.4",
      "value" : "765432"
    }],
    "active" : true,
    "name" : "CBS Health Corporation",
    "address" : [{
      "postalCode" : "77550"
    }]
  }],
  "identifier" : [{
    "type" : {
      "coding" : [{
        "system" : "http://hl7.org/fhir/us/carin-bb/CodeSystem/C4BBIdentifierType",
        "code" : "uc",
        "display" : "Unique Claim ID"
      }]
    },
    "value" : "NON-UNIQUE-ID-HERE"
  },
  {
    "system" : "https://bluebutton.cms.gov/identifiers/CLM-CNTL-NUM",
    "value" : "DOOPITY-DOOP-DOOP"
  }],
  "status" : "active",
  "type" : {
    "coding" : [{
      "system" : "http://terminology.hl7.org/CodeSystem/claim-type",
      "code" : "institutional"
    },
    {
      "system" : "https://bluebutton.cms.gov/fhir/CodeSystem/CLM-TYPE-CD",
      "code" : "60",
      "display" : "MEDICARE INPATIENT CLAIM"
    }]
  },
  "subType" : {
    "coding" : [{
      "system" : "http://hl7.org/fhir/us/carin-bb/CodeSystem/C4BBInstitutionalClaimSubType",
      "code" : "inpatient"
    }]
  },
  "use" : "claim",
  "patient" : {
    "reference" : "Patient/12345"
  },
  "billablePeriod" : {
    "start" : "2025-01-03",
    "end" : "2025-01-11"
  },
  "created" : "2025-01-18",
  "insurer" : {
    "reference" : "#insurer-org"
  },
  "provider" : {
    "reference" : "#1548226988"
  },
  "outcome" : "complete",
  "careTeam" : [{
    "sequence" : 1,
    "provider" : {
      "identifier" : {
        "type" : {
          "coding" : [{
            "system" : "http://terminology.hl7.org/CodeSystem/v2-0203",
            "code" : "NPI",
            "display" : "National provider identifier"
          }]
        },
        "system" : "http://hl7.org/fhir/sid/us-npi",
        "value" : "1942945159"
      },
      "display" : "Stark, Tony"
    },
    "role" : {
      "coding" : [{
        "system" : "http://terminology.hl7.org/CodeSystem/claimcareteamrole",
        "code" : "otheroperating",
        "display" : "Other Operating"
      },
      {
        "system" : "http://hl7.org/fhir/us/carin-bb/CodeSystem/C4BBClaimCareTeamRole",
        "code" : "otheroperating",
        "display" : "Other Operating"
      }]
    }
  },
  {
    "sequence" : 2,
    "provider" : {
      "identifier" : {
        "type" : {
          "coding" : [{
            "system" : "http://terminology.hl7.org/CodeSystem/v2-0203",
            "code" : "NPI",
            "display" : "National provider identifier"
          }]
        },
        "system" : "http://hl7.org/fhir/sid/us-npi",
        "value" : "1942945159"
      },
      "display" : "Stark, Tony"
    },
    "role" : {
      "coding" : [{
        "system" : "http://terminology.hl7.org/CodeSystem/claimcareteamrole",
        "code" : "attending",
        "display" : "Attending"
      },
      {
        "system" : "http://hl7.org/fhir/us/carin-bb/CodeSystem/C4BBClaimCareTeamRole",
        "code" : "attending",
        "display" : "Attending"
      }]
    },
    "qualification" : {
      "coding" : [{
        "system" : "http://nucc.org/provider-taxonomy",
        "code" : "204D00000X"
      },
      {
        "system" : "https://bluebutton.cms.gov/fhir/CodeSystem/CLM-PRVDR-SPCLTY-CD",
        "code" : "12",
        "display" : "OSTEOPATHIC MANIPULATIVE MEDICINE"
      }]
    }
  },
  {
    "sequence" : 3,
    "provider" : {
      "identifier" : {
        "type" : {
          "coding" : [{
            "system" : "http://terminology.hl7.org/CodeSystem/v2-0203",
            "code" : "NPI",
            "display" : "National provider identifier"
          }]
        },
        "system" : "http://hl7.org/fhir/sid/us-npi",
        "value" : "1942945159"
      },
      "display" : "Stark, Tony"
    },
    "role" : {
      "coding" : [{
        "system" : "http://terminology.hl7.org/CodeSystem/claimcareteamrole",
        "code" : "operating",
        "display" : "Operating"
      },
      {
        "system" : "http://hl7.org/fhir/us/carin-bb/CodeSystem/C4BBClaimCareTeamRole",
        "code" : "operating",
        "display" : "Operating"
      }]
    }
  },
  {
    "sequence" : 4,
    "provider" : {
      "identifier" : {
        "type" : {
          "coding" : [{
            "system" : "http://terminology.hl7.org/CodeSystem/v2-0203",
            "code" : "NPI",
            "display" : "National provider identifier"
          }]
        },
        "system" : "http://hl7.org/fhir/sid/us-npi",
        "value" : "1942945159"
      },
      "display" : "Stark, Tony"
    },
    "role" : {
      "coding" : [{
        "system" : "http://terminology.hl7.org/CodeSystem/claimcareteamrole",
        "code" : "rendering",
        "display" : "Rendering provider"
      },
      {
        "system" : "http://hl7.org/fhir/us/carin-bb/CodeSystem/C4BBClaimCareTeamRole",
        "code" : "rendering",
        "display" : "Rendering provider"
      }]
    }
  }],
  "supportingInfo" : [{
    "sequence" : 1,
    "category" : {
      "coding" : [{
        "system" : "http://hl7.org/fhir/us/carin-bb/CodeSystem/C4BBSupportingInfoType",
        "code" : "admissionperiod"
      }]
    },
    "timingPeriod" : {
      "start" : "2021-01-01",
      "end" : "2021-01-02"
    }
  },
  {
    "sequence" : 2,
    "category" : {
      "coding" : [{
        "system" : "http://hl7.org/fhir/us/carin-bb/CodeSystem/C4BBSupportingInfoType",
        "code" : "admtype"
      }]
    },
    "code" : {
      "coding" : [{
        "system" : "https://www.nubc.org/CodeSystem/PriorityTypeOfAdmitOrVisit",
        "code" : "3"
      },
      {
        "system" : "https://bluebutton.cms.gov/fhir/CodeSystem/CLM-ADMSN-TYPE-CD",
        "code" : "3",
        "display" : "Elective - The patient's condition permitted adequate time to schedule the availability of suitable accommodations."
      }]
    }
  },
  {
    "sequence" : 3,
    "category" : {
      "coding" : [{
        "system" : "http://hl7.org/fhir/us/carin-bb/CodeSystem/C4BBSupportingInfoType",
        "code" : "clmrecvddate"
      }]
    },
    "timingDate" : "2020-01-13"
  },
  {
    "sequence" : 4,
    "category" : {
      "coding" : [{
        "system" : "http://hl7.org/fhir/us/carin-bb/CodeSystem/C4BBSupportingInfoType",
        "code" : "discharge-status"
      }]
    },
    "code" : {
      "coding" : [{
        "system" : "https://www.nubc.org/CodeSystem/PatDischargeStatus",
        "code" : "06"
      },
      {
        "system" : "https://bluebutton.cms.gov/fhir/CodeSystem/BENE-PTNT-STUS-CD",
        "code" : "06",
        "display" : "DISCHARGED/TRANSFERRED TO HOME UNDER CARE OF ORGANIZED HOME HEALTH SERVICE ORGANIZATION"
      }]
    }
  },
  {
    "sequence" : 5,
    "category" : {
      "coding" : [{
        "system" : "http://hl7.org/fhir/us/carin-bb/CodeSystem/C4BBSupportingInfoType",
        "code" : "drg"
      }]
    },
    "code" : {
      "coding" : [{
        "system" : "https://www.cms.gov/Medicare/Medicare-Fee-for-Service-Payment/AcuteInpatientPPS/MS-DRG-Classifications-and-Software",
        "code" : "460"
      }]
    }
  },
  {
    "sequence" : 6,
    "category" : {
      "coding" : [{
        "system" : "http://terminology.hl7.org/CodeSystem/claiminformationcategory",
        "code" : "info",
        "display" : "Information"
      },
      {
        "system" : "https://bluebutton.cms.gov/fhir/CodeSystem/Supporting-Information",
        "code" : "CLM_BLOOD_PT_FRNSH_QTY",
        "display" : "Blood Pints Furnished Quantity"
      }]
    },
    "valueQuantity" : {
      "value" : 15,
      "unit" : "pint",
      "system" : "http://unitsofmeasure.org",
      "code" : "[pt_us]"
    }
  },
  {
    "sequence" : 7,
    "category" : {
      "coding" : [{
        "system" : "http://terminology.hl7.org/CodeSystem/claiminformationcategory",
        "code" : "info",
        "display" : "Information"
      },
      {
        "system" : "https://bluebutton.cms.gov/fhir/CodeSystem/Supporting-Information",
        "code" : "CLM_MDCR_INSTNL_MCO_PD_SW",
        "display" : "MCO Paid Switch"
      }]
    },
    "code" : {
      "coding" : [{
        "system" : "https://bluebutton.cms.gov/fhir/CodeSystem/CLM-MDCR-INSTNL-MCO-PD-SW",
        "code" : "1",
        "display" : "MCO paid provider for the claim"
      }]
    }
  },
  {
    "sequence" : 8,
    "category" : {
      "coding" : [{
        "system" : "http://hl7.org/fhir/us/carin-bb/CodeSystem/C4BBSupportingInfoType",
        "code" : "pointoforigin"
      }]
    },
    "code" : {
      "coding" : [{
        "system" : "https://www.nubc.org/CodeSystem/PointOfOrigin",
        "code" : "2"
      },
      {
        "system" : "https://bluebutton.cms.gov/fhir/CodeSystem/CLM-ADMSN-SRC-CD",
        "code" : "2",
        "display" : "CLINIC OR PHYSICIAN'S OFFICE (NON-NEWBORN)/RESERVED FOR NATIONAL ASSIGNMENT (NEWBORN)"
      }]
    }
  },
  {
    "sequence" : 9,
    "category" : {
      "coding" : [{
        "system" : "http://hl7.org/fhir/us/carin-bb/CodeSystem/C4BBSupportingInfoType",
        "code" : "typeofbill"
      }]
    },
    "code" : {
      "coding" : [{
        "system" : "https://www.nubc.org/CodeSystem/TypeOfBill",
        "code" : "0123"
      },
      {
        "system" : "https://bluebutton.cms.gov/fhir/CodeSystem/CLM-BILL-FAC-TYPE-CD",
        "code" : "1"
      },
      {
        "system" : "https://bluebutton.cms.gov/fhir/CodeSystem/CLM-BILL-CLSFCTN-CD",
        "code" : "12"
      },
      {
        "system" : "https://bluebutton.cms.gov/fhir/CodeSystem/CLM-BILL-FREQ-CD",
        "code" : "123"
      }]
    }
  },
  {
    "sequence" : 10,
    "category" : {
      "coding" : [{
        "system" : "http://terminology.hl7.org/CodeSystem/claiminformationcategory",
        "code" : "info",
        "display" : "Information"
      },
      {
        "system" : "https://bluebutton.cms.gov/fhir/CodeSystem/Supporting-Information",
        "code" : "CLM_NCH_WKLY_PROC_DT",
        "display" : "Weekly Process Date"
      }]
    },
    "timingDate" : "2025-01-18"
  },
  {
    "sequence" : 11,
    "category" : {
      "coding" : [{
        "system" : "http://terminology.hl7.org/CodeSystem/claiminformationcategory",
        "code" : "info",
        "display" : "Information"
      },
      {
        "system" : "https://bluebutton.cms.gov/fhir/CodeSystem/Supporting-Information",
        "code" : "CLM_NCVRD_FROM_DT",
        "display" : "Noncovered Stay From Date"
      }]
    },
    "timingDate" : "2025-01-01"
  },
  {
    "sequence" : 12,
    "category" : {
      "coding" : [{
        "system" : "http://terminology.hl7.org/CodeSystem/claiminformationcategory",
        "code" : "info",
        "display" : "Information"
      },
      {
        "system" : "https://bluebutton.cms.gov/fhir/CodeSystem/Supporting-Information",
        "code" : "CLM_NCVRD_THRU_DT",
        "display" : "Noncovered Stay Through Date"
      }]
    },
    "timingDate" : "2025-01-02"
  },
  {
    "sequence" : 13,
    "category" : {
      "coding" : [{
        "system" : "http://terminology.hl7.org/CodeSystem/claiminformationcategory",
        "code" : "info",
        "display" : "Information"
      },
      {
        "system" : "https://bluebutton.cms.gov/fhir/CodeSystem/Supporting-Information",
        "code" : "CLM_ACTV_CARE_THRU_DT",
        "display" : "Covered Care Through Date"
      }]
    },
    "timingDate" : "2025-01-11"
  },
  {
    "sequence" : 14,
    "category" : {
      "coding" : [{
        "system" : "http://terminology.hl7.org/CodeSystem/claiminformationcategory",
        "code" : "info",
        "display" : "Information"
      },
      {
        "system" : "https://bluebutton.cms.gov/fhir/CodeSystem/Supporting-Information",
        "code" : "CLM_MDCR_EXHSTD_DT",
        "display" : "Medicare Benefits Exhausted Date"
      }]
    },
    "timingDate" : "2025-01-11"
  },
  {
    "sequence" : 15,
    "category" : {
      "coding" : [{
        "system" : "http://terminology.hl7.org/CodeSystem/claiminformationcategory",
        "code" : "info",
        "display" : "Information"
      },
      {
        "system" : "https://bluebutton.cms.gov/fhir/CodeSystem/Supporting-Information",
        "code" : "CLM_NCH_PRMRY_PYR_CD",
        "display" : "NCH Primary Payer Code"
      }]
    },
    "code" : {
      "coding" : [{
        "system" : "https://bluebutton.cms.gov/fhir/CodeSystem/CLM-PRMRY-PYR-CD",
        "code" : "I",
        "display" : "VETERAN'S AFFAIRS"
      }]
    }
  },
  {
    "sequence" : 16,
    "category" : {
      "coding" : [{
        "system" : "http://terminology.hl7.org/CodeSystem/claiminformationcategory",
        "code" : "info",
        "display" : "Information"
      },
      {
        "system" : "https://bluebutton.cms.gov/fhir/CodeSystem/Supporting-Information",
        "code" : "CLM_PPS_IND_CD",
        "display" : "Claim PPS Indicator Code"
      }]
    },
    "code" : {
      "coding" : [{
        "system" : "https://bluebutton.cms.gov/fhir/CodeSystem/CLM-PPS-IND-CD",
        "code" : "2",
        "display" : "PPS bill; claim contains PPS indicator"
      }]
    }
  },
  {
    "sequence" : 17,
    "category" : {
      "coding" : [{
        "system" : "http://terminology.hl7.org/CodeSystem/claiminformationcategory",
        "code" : "info",
        "display" : "Information"
      },
      {
        "system" : "https://bluebutton.cms.gov/fhir/CodeSystem/Supporting-Information",
        "code" : "CLM_QLFY_STAY_FROM_DT",
        "display" : "Qualified Stay From Date"
      }]
    },
    "timingDate" : "2025-01-02"
  },
  {
    "sequence" : 18,
    "category" : {
      "coding" : [{
        "system" : "http://terminology.hl7.org/CodeSystem/claiminformationcategory",
        "code" : "info",
        "display" : "Information"
      },
      {
        "system" : "https://bluebutton.cms.gov/fhir/CodeSystem/Supporting-Information",
        "code" : "CLM_QLFY_STAY_THRU_DT",
        "display" : "Qualified Stay Through Date"
      }]
    },
    "timingDate" : "2025-01-01"
  },
  {
    "sequence" : 19,
    "category" : {
      "coding" : [{
        "system" : "http://terminology.hl7.org/CodeSystem/claiminformationcategory",
        "code" : "info",
        "display" : "Information"
      },
      {
        "system" : "https://bluebutton.cms.gov/fhir/CodeSystem/Supporting-Information",
        "code" : "CLM_HHA_LUP_IND_CD",
        "display" : "Claim Lupa Indicator Code"
      }]
    },
    "code" : {
      "coding" : [{
        "system" : "https://bluebutton.cms.gov/fhir/CodeSystem/CLM-HHA-LUP-IND-CD",
        "code" : "L",
        "display" : "Low utilization payment adjustment (LUPA) claim"
      }]
    }
  },
  {
    "sequence" : 20,
    "category" : {
      "coding" : [{
        "system" : "http://terminology.hl7.org/CodeSystem/claiminformationcategory",
        "code" : "info",
        "display" : "Information"
      },
      {
        "system" : "https://bluebutton.cms.gov/fhir/CodeSystem/Supporting-Information",
        "code" : "CLM_HHA_RFRL_CD",
        "display" : "Claim Referral Code"
      }]
    },
    "code" : {
      "coding" : [{
        "system" : "https://bluebutton.cms.gov/fhir/CodeSystem/CLM-HHA-RFRL-CD",
        "code" : "C",
        "display" : "READMISSION TO SAME HHA - IF A BENEFICIARY IS DISCHARGED FROM AN HHA AND THEN READMITTED WITHIN THE ORIGINAL 60-DAY EPISODE THE ORIGINAL EPISODE MUST BE CLOSED EARLY AND A NEW ONE CREATED."
      }]
    }
  },
  {
    "sequence" : 21,
    "category" : {
      "coding" : [{
        "system" : "http://terminology.hl7.org/CodeSystem/claiminformationcategory",
        "code" : "info",
        "display" : "Information"
      },
      {
        "system" : "https://bluebutton.cms.gov/fhir/CodeSystem/Supporting-Information",
        "code" : "DGNS_DRG_OUTLIER_CD",
        "display" : "Claim Diagnosis Related Group Outlier Stay Code"
      }]
    },
    "code" : {
      "coding" : [{
        "system" : "https://bluebutton.cms.gov/fhir/CodeSystem/DGNS-DRG-OUTLIER-CD",
        "code" : "6",
        "display" : "Valid diagnosis related groups (DRG) received from the intermediary *** Non-PPS Only ***"
      }]
    }
  },
  {
    "sequence" : 22,
    "category" : {
      "coding" : [{
        "system" : "http://terminology.hl7.org/CodeSystem/claiminformationcategory",
        "code" : "info",
        "display" : "Information"
      },
      {
        "system" : "https://bluebutton.cms.gov/fhir/CodeSystem/Supporting-Information",
        "code" : "CLM_PPS_IND_CD",
        "display" : "Claim PPS Indicator Code"
      }]
    },
    "code" : {
      "coding" : [{
        "system" : "https://bluebutton.cms.gov/fhir/CodeSystem/CLM-PPS-IND-CD",
        "code" : "2",
        "display" : "PPS bill; claim contains PPS indicator"
      }]
    }
  },
  {
    "sequence" : 23,
    "category" : {
      "coding" : [{
        "system" : "http://terminology.hl7.org/CodeSystem/claiminformationcategory",
        "code" : "info",
        "display" : "Information"
      },
      {
        "system" : "https://bluebutton.cms.gov/fhir/CodeSystem/Supporting-Information",
        "code" : "CLM_NRLN_RIC_CD",
        "display" : "Near Line Record Identification Code"
      }]
    },
    "code" : {
      "coding" : [{
        "system" : "https://bluebutton.cms.gov/fhir/CodeSystem/CLM-NRLN-RIC-CD",
        "code" : "V",
        "display" : "Part A institutional claim record (inpatient [IP], skilled nursing facility [SNF], hospice [HOS], or home health agency [HHA])"
      }]
    }
  },
  {
    "sequence" : 24,
    "category" : {
      "coding" : [{
        "system" : "http://terminology.hl7.org/CodeSystem/claiminformationcategory",
        "code" : "info",
        "display" : "Information"
      },
      {
        "system" : "https://bluebutton.cms.gov/fhir/CodeSystem/Supporting-Information",
        "code" : "CLM_RLT_COND_CD",
        "display" : "Claim Related Condition Code"
      }]
    },
    "code" : {
      "coding" : [{
        "system" : "https://bluebutton.cms.gov/fhir/CodeSystem/CLM-RLT-COND-CD",
        "code" : "04",
        "display" : "INFORMATION ONLY BILL"
      }]
    }
  },
  {
    "sequence" : 25,
    "category" : {
      "coding" : [{
        "system" : "http://terminology.hl7.org/CodeSystem/claiminformationcategory",
        "code" : "info",
        "display" : "Information"
      },
      {
        "system" : "https://bluebutton.cms.gov/fhir/CodeSystem/Supporting-Information",
        "code" : "CLM_RLT_COND_CD",
        "display" : "Claim Related Condition Code"
      }]
    },
    "code" : {
      "coding" : [{
        "system" : "https://bluebutton.cms.gov/fhir/CodeSystem/CLM-RLT-COND-CD",
        "code" : "DR",
        "display" : "DISASTER RELATED  (EFF. 10/2005)"
      }]
    }
  },
  {
    "sequence" : 26,
    "category" : {
      "coding" : [{
        "system" : "http://terminology.hl7.org/CodeSystem/claiminformationcategory",
        "code" : "info",
        "display" : "Information"
      },
      {
        "system" : "https://bluebutton.cms.gov/fhir/CodeSystem/Supporting-Information",
        "code" : "CLM_QUERY_CD",
        "display" : "Claim Query Code"
      }]
    },
    "code" : {
      "coding" : [{
        "system" : "https://bluebutton.cms.gov/fhir/CodeSystem/CLM-QUERY-CD",
        "code" : "3",
        "display" : "FINAL BILL"
      }]
    }
  },
  {
    "sequence" : 27,
    "category" : {
      "coding" : [{
        "system" : "http://terminology.hl7.org/CodeSystem/claiminformationcategory",
        "code" : "info",
        "display" : "Information"
      },
      {
        "system" : "https://bluebutton.cms.gov/fhir/CodeSystem/Supporting-Information",
        "code" : "CLM_IDR_LD_DT",
        "display" : "Claim IDR Load Date"
      }]
    },
    "timingDate" : "2025-01-18"
  },
  {
    "sequence" : 28,
    "category" : {
      "coding" : [{
        "system" : "http://terminology.hl7.org/CodeSystem/claiminformationcategory",
        "code" : "info",
        "display" : "Information"
      },
      {
        "system" : "https://bluebutton.cms.gov/fhir/CodeSystem/Supporting-Information",
        "code" : "CLM_CNTRCTR_NUM",
        "display" : "Claim Contractor Number"
      }]
    },
    "code" : {
      "coding" : [{
        "system" : "https://bluebutton.cms.gov/fhir/CodeSystem/CLM-CNTRCTR-NUM",
        "code" : "10312",
        "display" : "PALMETTO GBA LLC"
      }]
    }
  },
  {
    "sequence" : 29,
    "category" : {
      "coding" : [{
        "system" : "http://terminology.hl7.org/CodeSystem/claiminformationcategory",
        "code" : "info",
        "display" : "Information"
      },
      {
        "system" : "https://bluebutton.cms.gov/fhir/CodeSystem/Supporting-Information",
        "code" : "CLM_ADJSTMT_TYPE_CD",
        "display" : "Claim Adjustment Type Code"
      }]
    },
    "code" : {
      "coding" : [{
        "system" : "https://bluebutton.cms.gov/fhir/CodeSystem/CLM-ADJSTMT-TYPE-CD",
        "code" : "0",
        "display" : "ORIGINAL"
      }]
    }
  },
  {
    "sequence" : 30,
    "category" : {
      "coding" : [{
        "system" : "http://terminology.hl7.org/CodeSystem/claiminformationcategory",
        "code" : "info",
        "display" : "Information"
      },
      {
        "system" : "https://bluebutton.cms.gov/fhir/CodeSystem/Supporting-Information",
        "code" : "CLM_DISP_CD",
        "display" : "Claim Disposition Code"
      }]
    },
    "code" : {
      "coding" : [{
        "system" : "https://bluebutton.cms.gov/fhir/CodeSystem/CLM-DISP-CD",
        "code" : "1",
        "display" : "DEBIT ACCEPTED"
      }]
    }
  },
  {
    "sequence" : 31,
    "category" : {
      "coding" : [{
        "system" : "http://terminology.hl7.org/CodeSystem/claiminformationcategory",
        "code" : "info",
        "display" : "Information"
      },
      {
        "system" : "https://bluebutton.cms.gov/fhir/CodeSystem/Supporting-Information",
        "code" : "CLM_CMS_PROC_DT",
        "display" : "FI Claim Process Date"
      }]
    },
    "timingDate" : "2025-01-01"
  },
  {
    "sequence" : 32,
    "category" : {
      "coding" : [{
        "system" : "http://terminology.hl7.org/CodeSystem/claiminformationcategory",
        "code" : "info",
        "display" : "Information"
      },
      {
        "system" : "https://bluebutton.cms.gov/fhir/CodeSystem/Supporting-Information",
        "code" : "CLM_MDCR_NPMT_RSN_CD",
        "display" : "Claim Non Payment Reason Code"
      }]
    },
    "code" : {
      "coding" : [{
        "system" : "https://bluebutton.cms.gov/fhir/CodeSystem/CLM-MDCR-NPMT-RSN-CD",
        "code" : "P",
        "display" : "PAYMENT REQUESTED"
      }]
    }
  },
  {
    "sequence" : 33,
    "category" : {
      "coding" : [{
        "system" : "http://terminology.hl7.org/CodeSystem/claiminformationcategory",
        "code" : "info",
        "display" : "Information"
      },
      {
        "system" : "https://bluebutton.cms.gov/fhir/CodeSystem/Supporting-Information",
        "code" : "CLM_FI_ACTN_CD",
        "display" : "Claim Fiscal Intermediary Action Code"
      }]
    },
    "code" : {
      "coding" : [{
        "system" : "https://bluebutton.cms.gov/fhir/CodeSystem/CLM-FI-ACTN-CD",
        "code" : "1",
        "display" : "Original debit action (always a 1 for all regular bills)"
      }]
    }
  },
  {
    "sequence" : 34,
    "category" : {
      "coding" : [{
        "system" : "http://terminology.hl7.org/CodeSystem/claiminformationcategory",
        "code" : "info",
        "display" : "Information"
      },
      {
        "system" : "https://bluebutton.cms.gov/fhir/CodeSystem/Supporting-Information",
        "code" : "CLM_BNFT_ENHNCMT_CD",
        "display" : "Claim Benefit Enhancement Code"
      }]
    },
    "code" : {
      "coding" : [{
        "system" : "https://bluebutton.cms.gov/fhir/CodeSystem/CLM-BNFT-ENHNCMT-CD",
        "code" : "1",
        "display" : "POPULATION BASED PAYMENTS (PBP)"
      }]
    }
  },
  {
    "sequence" : 35,
    "category" : {
      "coding" : [{
        "system" : "http://terminology.hl7.org/CodeSystem/claiminformationcategory",
        "code" : "info",
        "display" : "Information"
      },
      {
        "system" : "https://bluebutton.cms.gov/fhir/CodeSystem/Supporting-Information",
        "code" : "CLM_BNFT_ENHNCMT_CD",
        "display" : "Claim Benefit Enhancement Code"
      }]
    },
    "code" : {
      "coding" : [{
        "system" : "https://bluebutton.cms.gov/fhir/CodeSystem/CLM-BNFT-ENHNCMT-CD",
        "code" : "2",
        "display" : "TELEHEALTH"
      }]
    }
  },
  {
    "sequence" : 36,
    "category" : {
      "coding" : [{
        "system" : "http://terminology.hl7.org/CodeSystem/claiminformationcategory",
        "code" : "info",
        "display" : "Information"
      },
      {
        "system" : "https://bluebutton.cms.gov/fhir/CodeSystem/Supporting-Information",
        "code" : "CLM_BNFT_ENHNCMT_CD",
        "display" : "Claim Benefit Enhancement Code"
      }]
    },
    "code" : {
      "coding" : [{
        "system" : "https://bluebutton.cms.gov/fhir/CodeSystem/CLM-BNFT-ENHNCMT-CD",
        "code" : "3",
        "display" : "POST DISCHARGE HOME VISITS"
      }]
    }
  },
  {
    "sequence" : 37,
    "category" : {
      "coding" : [{
        "system" : "http://terminology.hl7.org/CodeSystem/claiminformationcategory",
        "code" : "info",
        "display" : "Information"
      },
      {
        "system" : "https://bluebutton.cms.gov/fhir/CodeSystem/Supporting-Information",
        "code" : "CLM_BNFT_ENHNCMT_CD",
        "display" : "Claim Benefit Enhancement Code"
      }]
    },
    "code" : {
      "coding" : [{
        "system" : "https://bluebutton.cms.gov/fhir/CodeSystem/CLM-BNFT-ENHNCMT-CD",
        "code" : "4",
        "display" : "THREE DAY SNF - WAIVER"
      }]
    }
  },
  {
    "sequence" : 38,
    "category" : {
      "coding" : [{
        "system" : "http://terminology.hl7.org/CodeSystem/claiminformationcategory",
        "code" : "info",
        "display" : "Information"
      },
      {
        "system" : "https://bluebutton.cms.gov/fhir/CodeSystem/Supporting-Information",
        "code" : "CLM_BNFT_ENHNCMT_CD",
        "display" : "Claim Benefit Enhancement Code"
      }]
    },
    "code" : {
      "coding" : [{
        "system" : "https://bluebutton.cms.gov/fhir/CodeSystem/CLM-BNFT-ENHNCMT-CD",
        "code" : "5",
        "display" : "CAPITATION (AIPBP/TCC)"
      }]
    }
  },
  {
    "sequence" : 39,
    "category" : {
      "coding" : [{
        "system" : "http://terminology.hl7.org/CodeSystem/claiminformationcategory",
        "code" : "info",
        "display" : "Information"
      },
      {
        "system" : "https://bluebutton.cms.gov/fhir/CodeSystem/Supporting-Information",
        "code" : "CLM_ACO_CARE_MGMT_HCBS_SW",
        "display" : "Care Management Home Visits Enhancement"
      }]
    },
    "code" : {
      "coding" : [{
        "system" : "https://bluebutton.cms.gov/fhir/CodeSystem/CLM-BNFT-ENHNCMT-CD-SWITCH",
        "code" : "Y",
        "display" : "This benefit enhancement is present for this claim/claim line."
      }]
    }
  },
  {
    "sequence" : 40,
    "category" : {
      "coding" : [{
        "system" : "http://terminology.hl7.org/CodeSystem/claiminformationcategory",
        "code" : "info",
        "display" : "Information"
      },
      {
        "system" : "https://bluebutton.cms.gov/fhir/CodeSystem/Supporting-Information",
        "code" : "CLM_BNFT_ENHNCMT_CD",
        "display" : "Claim Benefit Enhancement Code"
      }]
    },
    "code" : {
      "coding" : [{
        "system" : "https://bluebutton.cms.gov/fhir/CodeSystem/CLM-BNFT-ENHNCMT-CD",
        "code" : "7",
        "display" : "CARE MANAGEMENT HOME VISITS"
      }]
    }
  }],
  "diagnosis" : [{
    "sequence" : 1,
    "diagnosisCodeableConcept" : {
      "coding" : [{
        "system" : "http://hl7.org/fhir/sid/icd-10-cm",
        "code" : "M48.062"
      }]
    },
    "type" : [{
      "coding" : [{
        "system" : "http://terminology.hl7.org/CodeSystem/ex-diagnosistype",
        "code" : "principal"
      }]
    }]
  },
  {
    "sequence" : 2,
    "diagnosisCodeableConcept" : {
      "coding" : [{
        "system" : "http://hl7.org/fhir/sid/icd-10-cm",
        "code" : "M48.062"
      }]
    },
    "type" : [{
      "coding" : [{
        "system" : "http://terminology.hl7.org/CodeSystem/ex-diagnosistype",
        "code" : "admitting"
      }]
    }]
  },
  {
    "sequence" : 3,
    "diagnosisCodeableConcept" : {
      "coding" : [{
        "system" : "http://hl7.org/fhir/sid/icd-10-cm",
        "code" : "Z66"
      }]
    },
    "type" : [{
      "coding" : [{
        "system" : "http://hl7.org/fhir/us/carin-bb/CodeSystem/C4BBClaimDiagnosisType",
        "code" : "externalcauseofinjury"
      }]
    }]
  },
  {
    "sequence" : 4,
    "diagnosisCodeableConcept" : {
      "coding" : [{
        "system" : "http://hl7.org/fhir/sid/icd-10-cm",
        "code" : "M48.062"
      }]
    },
    "type" : [{
      "coding" : [{
        "system" : "http://hl7.org/fhir/us/carin-bb/CodeSystem/C4BBClaimDiagnosisType",
        "code" : "other"
      }]
    }],
    "onAdmission" : {
      "coding" : [{
        "system" : "https://www.cms.gov/Medicare/Medicare-Fee-for-Service-Payment/HospitalAcqCond/Coding",
        "code" : "Y"
      }]
    }
  },
  {
    "sequence" : 5,
    "diagnosisCodeableConcept" : {
      "coding" : [{
        "system" : "http://hl7.org/fhir/sid/icd-10-cm",
        "code" : "M47.817"
      }]
    },
    "type" : [{
      "coding" : [{
        "system" : "http://hl7.org/fhir/us/carin-bb/CodeSystem/C4BBClaimDiagnosisType",
        "code" : "other"
      }]
    }],
    "onAdmission" : {
      "coding" : [{
        "system" : "https://www.cms.gov/Medicare/Medicare-Fee-for-Service-Payment/HospitalAcqCond/Coding",
        "code" : "Y"
      }]
    }
  },
  {
    "sequence" : 6,
    "diagnosisCodeableConcept" : {
      "coding" : [{
        "system" : "http://hl7.org/fhir/sid/icd-10-cm",
        "code" : "E78.00"
      }]
    },
    "type" : [{
      "coding" : [{
        "system" : "http://hl7.org/fhir/us/carin-bb/CodeSystem/C4BBClaimDiagnosisType",
        "code" : "other"
      }]
    }],
    "onAdmission" : {
      "coding" : [{
        "system" : "https://www.cms.gov/Medicare/Medicare-Fee-for-Service-Payment/HospitalAcqCond/Coding",
        "code" : "Y"
      }]
    }
  },
  {
    "sequence" : 7,
    "diagnosisCodeableConcept" : {
      "coding" : [{
        "system" : "http://hl7.org/fhir/sid/icd-10-cm",
        "code" : "K11.21"
      }]
    },
    "type" : [{
      "coding" : [{
        "system" : "http://hl7.org/fhir/us/carin-bb/CodeSystem/C4BBClaimDiagnosisType",
        "code" : "other"
      }]
    }],
    "onAdmission" : {
      "coding" : [{
        "system" : "https://www.cms.gov/Medicare/Medicare-Fee-for-Service-Payment/HospitalAcqCond/Coding",
        "code" : "N"
      }]
    }
  }],
  "procedure" : [{
    "sequence" : 1,
    "type" : [{
      "coding" : [{
        "system" : "http://hl7.org/fhir/us/carin-bb/CodeSystem/C4BBClaimProcedureType",
        "code" : "principal",
        "display" : "Principal"
      }]
    }],
    "date" : "2024-01-01",
    "procedureCodeableConcept" : {
      "coding" : [{
        "system" : "http://www.cms.gov/Medicare/Coding/ICD10",
        "code" : "0SG30AJ"
      }]
    }
  },
  {
    "sequence" : 2,
    "type" : [{
      "coding" : [{
        "system" : "http://hl7.org/fhir/us/carin-bb/CodeSystem/C4BBClaimProcedureType",
        "code" : "other",
        "display" : "Other"
      }]
    }],
    "date" : "2024-01-01",
    "procedureCodeableConcept" : {
      "coding" : [{
        "system" : "http://www.cms.gov/Medicare/Coding/ICD10",
        "code" : "01NB0ZZ"
      }]
    }
  },
  {
    "sequence" : 3,
    "type" : [{
      "coding" : [{
        "system" : "http://hl7.org/fhir/us/carin-bb/CodeSystem/C4BBClaimProcedureType",
        "code" : "other",
        "display" : "Other"
      }]
    }],
    "date" : "2024-01-01",
    "procedureCodeableConcept" : {
      "coding" : [{
        "system" : "http://www.cms.gov/Medicare/Coding/ICD10",
        "code" : "0SB40ZZ"
      }]
    }
  },
  {
    "sequence" : 4,
    "type" : [{
      "coding" : [{
        "system" : "http://hl7.org/fhir/us/carin-bb/CodeSystem/C4BBClaimProcedureType",
        "code" : "other",
        "display" : "Other"
      }]
    }],
    "date" : "2024-01-01",
    "procedureCodeableConcept" : {
      "coding" : [{
        "system" : "http://www.cms.gov/Medicare/Coding/ICD10",
        "code" : "01NR0ZZ"
      }]
    }
  },
  {
    "sequence" : 5,
    "type" : [{
      "coding" : [{
        "system" : "http://hl7.org/fhir/us/carin-bb/CodeSystem/C4BBClaimProcedureType",
        "code" : "other",
        "display" : "Other"
      }]
    }],
    "date" : "2024-01-01",
    "procedureCodeableConcept" : {
      "coding" : [{
        "system" : "http://www.cms.gov/Medicare/Coding/ICD10",
        "code" : "8E0WXBZ"
      }]
    }
  }],
  "insurance" : [{
    "focal" : true,
    "coverage" : {
      "display" : "Part A"
    }
  }],
  "item" : [{
    "sequence" : 1,
    "careTeamSequence" : [4],
    "diagnosisSequence" : [4],
    "informationSequence" : [40],
    "revenue" : {
      "coding" : [{
        "system" : "https://bluebutton.cms.gov/fhir/CodeSystem/CLM-REV-CNTR-CD",
        "code" : "0636",
        "display" : "PHARMACY - EXTENSION OF 025X - DRUGS REQUIRING DETAILED CODING"
      },
      {
        "system" : "https://www.nubc.org/CodeSystem/RevenueCodes",
        "code" : "0636"
      },
      {
        "system" : "https://bluebutton.cms.gov/fhir/CodeSystem/CLM-DDCTBL-COINSRNC-CD",
        "code" : "M"
      }]
    },
    "productOrService" : {
      "coding" : [{
        "system" : "http://www.ama-assn.org/go/cpt",
        "code" : "99213",
        "display" : "Office or other outpatient visit for the evaluation and management of an established patient, which requires a medically appropriate history and/or examination and low level of medical decision making. When using time for code selection, 20-29 minutes of total time is spent on the date of the encounter."
      }]
    },
    "quantity" : {
      "value" : 3.000
    },
    "adjudication" : [{
      "category" : {
        "coding" : [{
          "system" : "http://terminology.hl7.org/CodeSystem/adjudication",
          "code" : "eligible",
          "display" : "Eligible Amount"
        },
        {
          "system" : "https://bluebutton.cms.gov/fhir/CodeSystem/Adjudication",
          "code" : "CLM_LINE_ALOWD_CHRG_AMT",
          "display" : "Line Allowed Charge Amount"
        }]
      },
      "amount" : {
        "value" : 9194.22,
        "currency" : "USD"
      }
    },
    {
      "category" : {
        "coding" : [{
          "system" : "http://terminology.hl7.org/CodeSystem/adjudication",
          "code" : "submitted",
          "display" : "Submitted Amount"
        },
        {
          "system" : "https://bluebutton.cms.gov/fhir/CodeSystem/Adjudication",
          "code" : "CLM_LINE_SBMT_CHRG_AMT",
          "display" : "Line Submitted Charge Amount"
        }]
      },
      "amount" : {
        "value" : 50.11,
        "currency" : "USD"
      }
    },
    {
      "category" : {
        "coding" : [{
          "system" : "http://hl7.org/fhir/us/carin-bb/CodeSystem/C4BBAdjudication",
          "code" : "paidtoprovider",
          "display" : "Paid to provider"
        },
        {
          "system" : "https://bluebutton.cms.gov/fhir/CodeSystem/Adjudication",
          "code" : "CLM_LINE_PRVDR_PMT_AMT",
          "display" : "Line Provider Payment Amount"
        }]
      },
      "amount" : {
        "value" : 11.15,
        "currency" : "USD"
      }
    },
    {
      "category" : {
        "coding" : [{
          "system" : "https://bluebutton.cms.gov/fhir/CodeSystem/Adjudication",
          "code" : "CLM_LINE_ADD_ON_PYMT_AMT",
          "display" : "Add On Payment Amount"
        }]
      },
      "amount" : {
        "value" : 11.11,
        "currency" : "USD"
      }
    },
    {
      "category" : {
        "coding" : [{
          "system" : "https://bluebutton.cms.gov/fhir/CodeSystem/Adjudication",
          "code" : "CLM_LINE_NON_EHR_RDCTN_AMT",
          "display" : "Non-EHR Reduction Amount"
        }]
      },
      "amount" : {
        "value" : 11.12,
        "currency" : "USD"
      }
    }]
  },
  {
    "sequence" : 2,
    "revenue" : {
      "coding" : [{
        "system" : "https://bluebutton.cms.gov/fhir/CodeSystem/CLM-REV-CNTR-CD",
        "code" : "0771",
        "display" : "PREVENTIVE CARE SERVICES - VACCINE ADMINISTRATION"
      },
      {
        "system" : "https://www.nubc.org/CodeSystem/RevenueCodes",
        "code" : "0771"
      }]
    },
    "productOrService" : {
      "coding" : [{
        "system" : "http://www.ama-assn.org/go/cpt",
        "code" : "99453",
        "display" : "Remote monitoring of physiologic parameter(s) (eg, weight, blood pressure, pulse oximetry, respiratory flow rate), initial; set-up and patient education on use of equipment"
      }]
    },
    "modifier" : [{
      "coding" : [{
        "system" : "https://www.cms.gov/Medicare/Coding/HCPCSReleaseCodeSets",
        "code" : "A2"
      }]
    }],
    "quantity" : {
      "value" : 3.000
    },
    "adjudication" : [{
      "category" : {
        "coding" : [{
          "system" : "http://hl7.org/fhir/us/carin-bb/CodeSystem/C4BBAdjudication",
          "code" : "noncovered",
          "display" : "Noncovered"
        },
        {
          "system" : "https://bluebutton.cms.gov/fhir/CodeSystem/Adjudication",
          "code" : "CLM_LINE_NCVRD_CHRG_AMT",
          "display" : "Non-Covered Charge Amount"
        }]
      },
      "amount" : {
        "value" : 0.10,
        "currency" : "USD"
      }
    },
    {
      "category" : {
        "coding" : [{
          "system" : "http://hl7.org/fhir/us/carin-bb/CodeSystem/C4BBAdjudication",
          "code" : "paidtoprovider",
          "display" : "Paid to provider"
        },
        {
          "system" : "https://bluebutton.cms.gov/fhir/CodeSystem/Adjudication",
          "code" : "CLM_LINE_PRVDR_PMT_AMT",
          "display" : "Line Provider Payment Amount"
        }]
      },
      "amount" : {
        "value" : -91.0,
        "currency" : "USD"
      }
    },
    {
      "category" : {
        "coding" : [{
          "system" : "http://hl7.org/fhir/us/carin-bb/CodeSystem/C4BBAdjudication",
          "code" : "paidbypatient",
          "display" : "Paid by patient"
        },
        {
          "system" : "https://bluebutton.cms.gov/fhir/CodeSystem/Adjudication",
          "code" : "CLM_LINE_BENE_PMT_AMT",
          "display" : "Patient Responsibility Payment Amount"
        }]
      },
      "amount" : {
        "value" : 17.99,
        "currency" : "USD"
      }
    },
    {
      "category" : {
        "coding" : [{
          "system" : "http://hl7.org/fhir/us/carin-bb/CodeSystem/C4BBAdjudication",
          "code" : "paidtopatient",
          "display" : "Paid to patient"
        },
        {
          "system" : "https://bluebutton.cms.gov/fhir/CodeSystem/Adjudication",
          "code" : "CLM_LINE_BENE_PD_AMT",
          "display" : "Payment Amount to Beneficiary"
        }]
      },
      "amount" : {
        "value" : 13.22,
        "currency" : "USD"
      }
    },
    {
      "category" : {
        "coding" : [{
          "system" : "http://terminology.hl7.org/CodeSystem/adjudication",
          "code" : "benefit",
          "display" : "Benefit Amount"
        },
        {
          "system" : "https://bluebutton.cms.gov/fhir/CodeSystem/Adjudication",
          "code" : "CLM_LINE_CVRD_PD_AMT",
          "display" : "Payment Amount"
        }]
      },
      "amount" : {
        "value" : 11.14,
        "currency" : "USD"
      }
    },
    {
      "category" : {
        "coding" : [{
          "system" : "http://terminology.hl7.org/CodeSystem/adjudication",
          "code" : "deductible",
          "display" : "Deductible"
        },
        {
          "system" : "https://bluebutton.cms.gov/fhir/CodeSystem/Adjudication",
          "code" : "CLM_LINE_BLOOD_DDCTBL_AMT",
          "display" : "Blood Deductible Amount"
        }]
      },
      "amount" : {
        "value" : 17.11,
        "currency" : "USD"
      }
    },
    {
      "category" : {
        "coding" : [{
          "system" : "http://terminology.hl7.org/CodeSystem/adjudication",
          "code" : "deductible",
          "display" : "Deductible"
        },
        {
          "system" : "https://bluebutton.cms.gov/fhir/CodeSystem/Adjudication",
          "code" : "CLM_LINE_MDCR_DDCTBL_AMT",
          "display" : "Cash Deductible Amount"
        }]
      },
      "amount" : {
        "value" : 3.50,
        "currency" : "USD"
      }
    }]
  },
  {
    "sequence" : 3,
    "revenue" : {
      "coding" : [{
        "system" : "https://bluebutton.cms.gov/fhir/CodeSystem/CLM-REV-CNTR-CD",
        "code" : "0001",
        "display" : "TOTAL CHARGE"
      },
      {
        "system" : "https://www.nubc.org/CodeSystem/RevenueCodes",
        "code" : "0001"
      }]
    },
    "productOrService" : {
      "coding" : [{
        "system" : "http://terminology.hl7.org/CodeSystem/data-absent-reason",
        "code" : "not-applicable",
        "display" : "Not Applicable"
      }]
    },
    "modifier" : [{
      "coding" : [{
        "system" : "http://www.ama-assn.org/go/cpt",
        "code" : "99",
        "display" : "Multiple Modifiers: Under certain circumstances 2 or more modifiers may be necessary to completely delineate a service. In such situations modifier 99 should be added to the basic procedure, and other applicable modifiers may be listed as part of the description of the service."
      }]
    }],
    "servicedDate" : "2025-01-01",
    "adjudication" : [{
      "category" : {
        "coding" : [{
          "system" : "http://hl7.org/fhir/us/carin-bb/CodeSystem/C4BBAdjudication",
          "code" : "paidtoprovider",
          "display" : "Paid to provider"
        },
        {
          "system" : "https://bluebutton.cms.gov/fhir/CodeSystem/Adjudication",
          "code" : "CLM_LINE_PRVDR_PMT_AMT",
          "display" : "Line Provider Payment Amount"
        }]
      },
      "amount" : {
        "value" : 14.11,
        "currency" : "USD"
      }
    }]
  },
  {
    "sequence" : 4,
    "revenue" : {
      "coding" : [{
        "system" : "https://bluebutton.cms.gov/fhir/CodeSystem/CLM-REV-CNTR-CD",
        "code" : "0636",
        "display" : "PHARMACY - EXTENSION OF 025X - DRUGS REQUIRING DETAILED CODING"
      },
      {
        "system" : "https://www.nubc.org/CodeSystem/RevenueCodes",
        "code" : "0636"
      }]
    },
    "productOrService" : {
      "coding" : [{
        "system" : "https://www.cms.gov/Medicare/Coding/HCPCSReleaseCodeSets",
        "code" : "J2270"
      }]
    },
    "quantity" : {
      "value" : 3.000
    },
    "adjudication" : [{
      "category" : {
        "coding" : [{
          "system" : "http://hl7.org/fhir/us/carin-bb/CodeSystem/C4BBAdjudication",
          "code" : "paidtoprovider",
          "display" : "Paid to provider"
        },
        {
          "system" : "https://bluebutton.cms.gov/fhir/CodeSystem/Adjudication",
          "code" : "CLM_LINE_PRVDR_PMT_AMT",
          "display" : "Line Provider Payment Amount"
        }]
      },
      "amount" : {
        "value" : 11.11,
        "currency" : "USD"
      }
    },
    {
      "category" : {
        "coding" : [{
          "system" : "http://terminology.hl7.org/CodeSystem/adjudication",
          "code" : "deductible",
          "display" : "Deductible"
        },
        {
          "system" : "https://bluebutton.cms.gov/fhir/CodeSystem/Adjudication",
          "code" : "CLM_LINE_BLOOD_DDCTBL_AMT",
          "display" : "Blood Deductible Amount"
        }]
      },
      "amount" : {
        "value" : 1234.0,
        "currency" : "USD"
      }
    },
    {
      "category" : {
        "coding" : [{
          "system" : "https://bluebutton.cms.gov/fhir/CodeSystem/Adjudication",
          "code" : "CLM_LINE_INSTNL_ADJSTD_AMT",
          "display" : "Revenue Center Coinsurance/Wage Adjusted Coinsurance Amount"
        }]
      },
      "amount" : {
        "value" : 4.50,
        "currency" : "USD"
      }
    },
    {
      "category" : {
        "coding" : [{
          "system" : "https://bluebutton.cms.gov/fhir/CodeSystem/Adjudication",
          "code" : "CLM_LINE_INSTNL_RDCD_AMT",
          "display" : "Revenue Center Reduced Coinsurance Amount"
        }]
      },
      "amount" : {
        "value" : 11.11,
        "currency" : "USD"
      }
    },
    {
      "category" : {
        "coding" : [{
          "system" : "http://hl7.org/fhir/us/carin-bb/CodeSystem/C4BBAdjudication",
          "code" : "priorpayerpaid",
          "display" : "Prior payer paid"
        },
        {
          "system" : "https://bluebutton.cms.gov/fhir/CodeSystem/Adjudication",
          "code" : "CLM_LINE_INSTNL_MSP1_PD_AMT",
          "display" : "Revenue Center 1st MSP Paid Amount"
        }]
      },
      "amount" : {
        "value" : 17.00,
        "currency" : "USD"
      }
    },
    {
      "category" : {
        "coding" : [{
          "system" : "http://hl7.org/fhir/us/carin-bb/CodeSystem/C4BBAdjudication",
          "code" : "priorpayerpaid",
          "display" : "Prior payer paid"
        },
        {
          "system" : "https://bluebutton.cms.gov/fhir/CodeSystem/Adjudication",
          "code" : "CLM_LINE_INSTNL_MSP2_PD_AMT",
          "display" : "Revenue Center 2nd MSP Paid Amount"
        }]
      },
      "amount" : {
        "value" : 14.21,
        "currency" : "USD"
      }
    },
    {
      "category" : {
        "coding" : [{
          "system" : "https://bluebutton.cms.gov/fhir/CodeSystem/Adjudication",
          "code" : "CLM_LINE_INSTNL_RATE_AMT",
          "display" : "Revenue Center Rate Amount"
        }]
      },
      "amount" : {
        "value" : 0.85,
        "currency" : "USD"
      }
    }],
    "detail" : [{
      "sequence" : 1,
      "productOrService" : {
        "coding" : [{
          "system" : "http://hl7.org/fhir/sid/ndc",
          "code" : "00409189001",
          "display" : "Morphine Sulfate, 10 CARTRIDGE in 1 CARTON (0409-1890-01) > 1 mL in 1 CARTRIDGE (0409-1890-03) (package)"
        }]
      },
      "quantity" : {
        "value" : 1000.0,
        "unit" : "GR",
        "system" : "http://unitsofmeasure.org",
        "code" : "g"
      }
    }]
  }],
  "adjudication" : [{
    "category" : {
      "coding" : [{
        "system" : "http://hl7.org/fhir/us/carin-bb/CodeSystem/C4BBAdjudicationDiscriminator",
        "code" : "benefitpaymentstatus",
        "display" : "Benefit Payment Status"
      }]
    },
    "reason" : {
      "coding" : [{
        "system" : "http://hl7.org/fhir/us/carin-bb/CodeSystem/C4BBPayerAdjudicationStatus",
        "code" : "other",
        "display" : "Other"
      }]
    }
  },
  {
    "category" : {
      "coding" : [{
        "system" : "https://bluebutton.cms.gov/fhir/CodeSystem/Adjudication",
        "code" : "CLM_MDCR_IP_LRD_USE_CNT",
        "display" : "Beneficiary Medicare Lifetime Reserve Days (LRD) Used Count"
      }]
    },
    "value" : 7
  },
  {
    "category" : {
      "coding" : [{
        "system" : "https://bluebutton.cms.gov/fhir/CodeSystem/Adjudication",
        "code" : "CLM_INSTNL_MDCR_COINS_DAY_CNT",
        "display" : "Beneficiary Total Coinsurance Days Count"
      }]
    },
    "value" : 3
  },
  {
    "category" : {
      "coding" : [{
        "system" : "https://bluebutton.cms.gov/fhir/CodeSystem/Adjudication",
        "code" : "CLM_INSTNL_NCVRD_DAY_CNT",
        "display" : "Claim Medicare Non Utilization Days Count"
      }]
    },
    "value" : 4
  },
  {
    "category" : {
      "coding" : [{
        "system" : "https://bluebutton.cms.gov/fhir/CodeSystem/Adjudication",
        "code" : "CLM_MDCR_HOSPC_PRD_CNT",
        "display" : "Hospice Period Count"
      }]
    },
    "value" : 1
  },
  {
    "category" : {
      "coding" : [{
        "system" : "https://bluebutton.cms.gov/fhir/CodeSystem/Adjudication",
        "code" : "CLM_MDCR_HHA_TOT_VISIT_CNT",
        "display" : "Claim HHA Visit Count"
      }]
    },
    "value" : 2
  },
  {
    "category" : {
      "coding" : [{
        "system" : "https://bluebutton.cms.gov/fhir/CodeSystem/Adjudication",
        "code" : "CLM_MDCR_IP_PPS_DRG_WT_NUM",
        "display" : "PPS DRG Weight Number"
      }]
    },
    "value" : 1.08
  },
  {
    "category" : {
      "coding" : [{
        "system" : "https://bluebutton.cms.gov/fhir/CodeSystem/Adjudication",
        "code" : "CLM_INSTNL_CVRD_DAY_CNT",
        "display" : "Claim Medicare Utilization Day Count"
      }]
    },
    "value" : 30
  },
  {
    "category" : {
      "coding" : [{
        "system" : "https://bluebutton.cms.gov/fhir/CodeSystem/Adjudication",
        "code" : "CLM_INSTNL_PER_DIEM_AMT",
        "display" : "Claim Pass Thru Per Diem Amount"
      }]
    },
    "amount" : {
      "value" : 5.00,
      "currency" : "USD"
    }
  },
  {
    "category" : {
      "coding" : [{
        "system" : "https://bluebutton.cms.gov/fhir/CodeSystem/Adjudication",
        "code" : "CLM_MDCR_IP_PPS_DSPRPRTNT_AMT",
        "display" : "Claim PPS Capital Disproportionate Share Amount"
      }]
    },
    "amount" : {
      "value" : 15.11,
      "currency" : "USD"
    }
  },
  {
    "category" : {
      "coding" : [{
        "system" : "https://bluebutton.cms.gov/fhir/CodeSystem/Adjudication",
        "code" : "CLM_MDCR_IP_PPS_EXCPTN_AMT",
        "display" : "Claim PPS Capital Exception Amount"
      }]
    },
    "amount" : {
      "value" : 11.50,
      "currency" : "USD"
    }
  },
  {
    "category" : {
      "coding" : [{
        "system" : "https://bluebutton.cms.gov/fhir/CodeSystem/Adjudication",
        "code" : "CLM_MDCR_IP_PPS_CPTL_FSP_AMT",
        "display" : "Claim PPS Capital Federal Specific Portion (FSP) Amount"
      }]
    },
    "amount" : {
      "value" : 11.81,
      "currency" : "USD"
    }
  },
  {
    "category" : {
      "coding" : [{
        "system" : "https://bluebutton.cms.gov/fhir/CodeSystem/Adjudication",
        "code" : "CLM_MDCR_IP_PPS_CPTL_IME_AMT",
        "display" : "Claim PPS Capital Indirect Medical Education (IME) Amount"
      }]
    },
    "amount" : {
      "value" : 14.11,
      "currency" : "USD"
    }
  },
  {
    "category" : {
      "coding" : [{
        "system" : "https://bluebutton.cms.gov/fhir/CodeSystem/Adjudication",
        "code" : "CLM_MDCR_IP_PPS_OUTLIER_AMT",
        "display" : "Claim PPS Capital Outlier Amount"
      }]
    },
    "amount" : {
      "value" : 40.11,
      "currency" : "USD"
    }
  },
  {
    "category" : {
      "coding" : [{
        "system" : "https://bluebutton.cms.gov/fhir/CodeSystem/Adjudication",
        "code" : "CLM_MDCR_IP_PPS_CPTL_HRMLS_AMT",
        "display" : "Claim PPS Old Capital Hold Harmless Amount"
      }]
    },
    "amount" : {
      "value" : 13.31,
      "currency" : "USD"
    }
  },
  {
    "category" : {
      "coding" : [{
        "system" : "https://bluebutton.cms.gov/fhir/CodeSystem/Adjudication",
        "code" : "CLM_MDCR_IP_PPS_CPTL_TOT_AMT",
        "display" : "Claim Total PPS Capital Amount"
      }]
    },
    "amount" : {
      "value" : 11.11,
      "currency" : "USD"
    }
  },
  {
    "category" : {
      "coding" : [{
        "system" : "https://bluebutton.cms.gov/fhir/CodeSystem/Adjudication",
        "code" : "CLM_MDCR_INSTNL_PRMRY_PYR_AMT",
        "display" : "Primary Payer (if not Medicare) Claim Paid Amount"
      }]
    },
    "amount" : {
      "value" : 50.50,
      "currency" : "USD"
    }
  },
  {
    "category" : {
      "coding" : [{
        "system" : "https://bluebutton.cms.gov/fhir/CodeSystem/Adjudication",
        "code" : "CLM_INSTNL_PRFNL_AMT",
        "display" : "Professional Component Charge Amount"
      }]
    },
    "amount" : {
      "value" : 93.22,
      "currency" : "USD"
    }
  },
  {
    "category" : {
      "coding" : [{
        "system" : "https://bluebutton.cms.gov/fhir/CodeSystem/Adjudication",
        "code" : "CLM_INSTNL_DRG_OUTLIER_AMT",
        "display" : "DRG Outlier Approved Payment Amount"
      }]
    },
    "amount" : {
      "value" : 15.89,
      "currency" : "USD"
    }
  },
  {
    "category" : {
      "coding" : [{
        "system" : "https://bluebutton.cms.gov/fhir/CodeSystem/Adjudication",
        "code" : "CLM_HIPPS_UNCOMPD_CARE_AMT",
        "display" : "Claim Uncompensated Care Payment Amount"
      }]
    },
    "amount" : {
      "value" : 15.00,
      "currency" : "USD"
    }
  },
  {
    "category" : {
      "coding" : [{
        "system" : "https://bluebutton.cms.gov/fhir/CodeSystem/Adjudication",
        "code" : "CLM_FINL_STDZD_PYMT_AMT",
        "display" : "Standardized Payment Amount"
      }]
    },
    "amount" : {
      "value" : 10.00,
      "currency" : "USD"
    }
  },
  {
    "category" : {
      "coding" : [{
        "system" : "https://bluebutton.cms.gov/fhir/CodeSystem/Adjudication",
        "code" : "CLM_HAC_RDCTN_PYMT_AMT",
        "display" : "Hospital Acquired Condition Reduction Amount"
      }]
    },
    "amount" : {
      "value" : 10.01,
      "currency" : "USD"
    }
  },
  {
    "category" : {
      "coding" : [{
        "system" : "https://bluebutton.cms.gov/fhir/CodeSystem/Adjudication",
        "code" : "CLM_HIPPS_MODEL_BNDLD_PMT_AMT",
        "display" : "Blended Payment Amount"
      }]
    },
    "amount" : {
      "value" : 10.02,
      "currency" : "USD"
    }
  },
  {
    "category" : {
      "coding" : [{
        "system" : "https://bluebutton.cms.gov/fhir/CodeSystem/Adjudication",
        "code" : "CLM_HIPPS_READMSN_RDCTN_AMT",
        "display" : "Readmission Reduction Amount"
      }]
    },
    "amount" : {
      "value" : 10.03,
      "currency" : "USD"
    }
  },
  {
    "category" : {
      "coding" : [{
        "system" : "https://bluebutton.cms.gov/fhir/CodeSystem/Adjudication",
        "code" : "CLM_HIPPS_VBP_AMT",
        "display" : "HIPPS Value Based Purchasing Amount"
      }]
    },
    "amount" : {
      "value" : 10.04,
      "currency" : "USD"
    }
  },
  {
    "category" : {
      "coding" : [{
        "system" : "https://bluebutton.cms.gov/fhir/CodeSystem/Adjudication",
        "code" : "CLM_INSTNL_LOW_VOL_PMT_AMT",
        "display" : "Low Volume Payment Amount"
      }]
    },
    "amount" : {
      "value" : 10.05,
      "currency" : "USD"
    }
  },
  {
    "category" : {
      "coding" : [{
        "system" : "https://bluebutton.cms.gov/fhir/CodeSystem/Adjudication",
        "code" : "CLM_MDCR_IP_1ST_YR_RATE_AMT",
        "display" : "First Year Rate Amount"
      }]
    },
    "amount" : {
      "value" : 10.06,
      "currency" : "USD"
    }
  },
  {
    "category" : {
      "coding" : [{
        "system" : "https://bluebutton.cms.gov/fhir/CodeSystem/Adjudication",
        "code" : "CLM_MDCR_IP_SCND_YR_RATE_AMT",
        "display" : "Second Year Rate Amount"
      }]
    },
    "amount" : {
      "value" : 10.07,
      "currency" : "USD"
    }
  },
  {
    "category" : {
      "coding" : [{
        "system" : "https://bluebutton.cms.gov/fhir/CodeSystem/Adjudication",
        "code" : "CLM_PPS_MD_WVR_STDZD_VAL_AMT",
        "display" : "Maryland Waiver Standardized Amount"
      }]
    },
    "amount" : {
      "value" : 10.08,
      "currency" : "USD"
    }
  },
  {
    "category" : {
      "coding" : [{
        "system" : "https://bluebutton.cms.gov/fhir/CodeSystem/Adjudication",
        "code" : "CLM_SITE_NTRL_CST_BSD_PYMT_AMT",
        "display" : "Site-Neutral Cost-Based Payment Amount"
      }]
    },
    "amount" : {
      "value" : 10.09,
      "currency" : "USD"
    }
  },
  {
    "category" : {
      "coding" : [{
        "system" : "https://bluebutton.cms.gov/fhir/CodeSystem/Adjudication",
        "code" : "CLM_SITE_NTRL_IP_PPS_PYMT_AMT",
        "display" : "Site-Neutral IPPS Payment Amount"
      }]
    },
    "amount" : {
      "value" : 10.10,
      "currency" : "USD"
    }
  },
  {
    "category" : {
      "coding" : [{
        "system" : "https://bluebutton.cms.gov/fhir/CodeSystem/Adjudication",
        "code" : "CLM_SS_OUTLIER_STD_PYMT_AMT",
        "display" : "Short Stay Outlier Payment Amount"
      }]
    },
    "amount" : {
      "value" : 10.11,
      "currency" : "USD"
    }
  },
  {
    "category" : {
      "coding" : [{
        "system" : "https://bluebutton.cms.gov/fhir/CodeSystem/Adjudication",
        "code" : "CLM_MDCR_IP_BENE_DDCTBL_AMT",
        "display" : "Beneficiary Inpatient (or other Part A) Deductible Amount"
      }]
    },
    "amount" : {
      "value" : 19.11,
      "currency" : "USD"
    }
  },
  {
    "category" : {
      "coding" : [{
        "system" : "https://bluebutton.cms.gov/fhir/CodeSystem/Adjudication",
        "code" : "CLM_OPRTNL_DSPRTNT_AMT",
        "display" : "Operating Disproportionate Share Amount"
      }]
    },
    "amount" : {
      "value" : 14.14,
      "currency" : "USD"
    }
  },
  {
    "category" : {
      "coding" : [{
        "system" : "https://bluebutton.cms.gov/fhir/CodeSystem/Adjudication",
        "code" : "CLM_OPRTNL_IME_AMT",
        "display" : "Operating Indirect Medical Education Amount"
      }]
    },
    "amount" : {
      "value" : 12342.14,
      "currency" : "USD"
    }
  },
  {
    "category" : {
      "coding" : [{
        "system" : "https://bluebutton.cms.gov/fhir/CodeSystem/Adjudication",
        "code" : "CLM_BLOOD_LBLTY_AMT",
        "display" : "Beneficiary Blood Deductible Liability Amount"
      }]
    },
    "amount" : {
      "value" : 121.10,
      "currency" : "USD"
    }
  },
  {
    "category" : {
      "coding" : [{
        "system" : "https://bluebutton.cms.gov/fhir/CodeSystem/Adjudication",
        "code" : "CLM_BLOOD_CHRG_AMT",
        "display" : "Blood Charge Amount"
      }]
    },
    "amount" : {
      "value" : 10.01,
      "currency" : "USD"
    }
  },
  {
    "category" : {
      "coding" : [{
        "system" : "https://bluebutton.cms.gov/fhir/CodeSystem/Adjudication",
        "code" : "CLM_BLOOD_NCVRD_CHRG_AMT",
        "display" : "Blood Noncovered Charge Amount"
      }]
    },
    "amount" : {
      "value" : 10.02,
      "currency" : "USD"
    }
  },
  {
    "category" : {
      "coding" : [{
        "system" : "https://bluebutton.cms.gov/fhir/CodeSystem/Adjudication",
        "code" : "CLM_COB_PTNT_RESP_AMT",
        "display" : "Coordination of Benefits Patient Responsibility Amount"
      }]
    },
    "amount" : {
      "value" : 10.03,
      "currency" : "USD"
    }
  },
  {
    "category" : {
      "coding" : [{
        "system" : "https://bluebutton.cms.gov/fhir/CodeSystem/Adjudication",
        "code" : "CLM_PRVDR_INTRST_PD_AMT",
        "display" : "Provider Interest Paid Amount"
      }]
    },
    "amount" : {
      "value" : 10.05,
      "currency" : "USD"
    }
  },
  {
    "category" : {
      "coding" : [{
        "system" : "https://bluebutton.cms.gov/fhir/CodeSystem/Adjudication",
        "code" : "CLM_PRVDR_OTAF_AMT",
        "display" : "Provider Obligation To Accept as Full Amount"
      }]
    },
    "amount" : {
      "value" : 10.06,
      "currency" : "USD"
    }
  },
  {
    "category" : {
      "coding" : [{
        "system" : "https://bluebutton.cms.gov/fhir/CodeSystem/Adjudication",
        "code" : "CLM_PRVDR_RMNG_DUE_AMT",
        "display" : "Remaining Amount to Provider"
      }]
    },
    "amount" : {
      "value" : 10.07,
      "currency" : "USD"
    }
  },
  {
    "category" : {
      "coding" : [{
        "system" : "https://bluebutton.cms.gov/fhir/CodeSystem/Adjudication",
        "code" : "CLM_TOT_CNTRCTL_AMT",
        "display" : "Total Contractual Amount Discrepancy"
      }]
    },
    "amount" : {
      "value" : 10.08,
      "currency" : "USD"
    }
  }],
  "total" : [{
    "category" : {
      "coding" : [{
        "system" : "http://terminology.hl7.org/CodeSystem/adjudication",
        "code" : "submitted",
        "display" : "Submitted Amount"
      },
      {
        "system" : "https://bluebutton.cms.gov/fhir/CodeSystem/Adjudication",
        "code" : "CLM_SBMT_CHRG_AMT",
        "display" : "Total Charge Amount"
      }]
    },
    "amount" : {
      "value" : 9001.55,
      "currency" : "USD"
    }
  },
  {
    "category" : {
      "coding" : [{
        "system" : "http://terminology.hl7.org/CodeSystem/adjudication",
        "code" : "deductible",
        "display" : "Deductible"
      },
      {
        "system" : "https://bluebutton.cms.gov/fhir/CodeSystem/Adjudication",
        "code" : "CLM_MDCR_DDCTBL_AMT",
        "display" : "Beneficiary Deductible Amount"
      }]
    },
    "amount" : {
      "value" : 17.85,
      "currency" : "USD"
    }
  },
  {
    "category" : {
      "coding" : [{
        "system" : "http://hl7.org/fhir/us/carin-bb/CodeSystem/C4BBAdjudication",
        "code" : "coinsurance",
        "display" : "Co-insurance"
      },
      {
        "system" : "https://bluebutton.cms.gov/fhir/CodeSystem/Adjudication",
        "code" : "CLM_MDCR_COINSRNC_AMT",
        "display" : "Beneficiary Coinsurance Liability Amount"
      }]
    },
    "amount" : {
      "value" : 9.82,
      "currency" : "USD"
    }
  },
  {
    "category" : {
      "coding" : [{
        "system" : "http://hl7.org/fhir/us/carin-bb/CodeSystem/C4BBAdjudication",
        "code" : "noncovered",
        "display" : "Noncovered"
      },
      {
        "system" : "https://bluebutton.cms.gov/fhir/CodeSystem/Adjudication",
        "code" : "CLM_NCVRD_CHRG_AMT",
        "display" : "Inpatient(or other Part A) Non-covered Charge Amount"
      }]
    },
    "amount" : {
      "value" : 11.50,
      "currency" : "USD"
    }
  },
  {
    "category" : {
      "coding" : [{
        "system" : "http://hl7.org/fhir/us/carin-bb/CodeSystem/C4BBAdjudication",
        "code" : "coinsurance",
        "display" : "Co-insurance"
      },
      {
        "system" : "https://bluebutton.cms.gov/fhir/CodeSystem/Adjudication",
        "code" : "CLM_BENE_PMT_COINSRNC_AMT",
        "display" : "Beneficiary Coinsurance Amount"
      }]
    },
    "amount" : {
      "value" : 10.00,
      "currency" : "USD"
    }
  },
  {
    "category" : {
      "coding" : [{
        "system" : "http://hl7.org/fhir/us/carin-bb/CodeSystem/C4BBAdjudication",
        "code" : "priorpayerpaid",
        "display" : "Prior payer paid"
      },
      {
        "system" : "https://bluebutton.cms.gov/fhir/CodeSystem/Adjudication",
        "code" : "CLM_OTHR_TP_PD_AMT",
        "display" : "Other Third Party Payer Paid Amount"
      }]
    },
    "amount" : {
      "value" : 10.04,
      "currency" : "USD"
    }
  }],
  "payment" : {
    "amount" : {
      "value" : 3.50,
      "currency" : "USD"
    }
  }
}