{
  "resourceType" : "ExplanationOfBenefit",
  "meta" : {
    "lastUpdated" : "2024-01-15T10:30:00Z",
    "profile" : ["http://hl7.org/fhir/us/carin-bb/StructureDefinition/C4BB-ExplanationOfBenefit-Pharmacy|2.1.0"],
    "tag" : [{
      "system" : "https://bluebutton.cms.gov/fhir/CodeSystem/System-Type",
      "code" : "NationalClaimsHistory"
    }]
  },
  "contained" : [{
    "resourceType" : "Organization",
    "id" : "insurer-org",
    "meta" : {
      "profile" : ["http://hl7.org/fhir/us/carin-bb/StructureDefinition/C4BB-Organization|2.1.0",
      "http://hl7.org/fhir/us/core/StructureDefinition/us-core-organization|6.1.0"]
    },
    "active" : true,
    "name" : "Super Saver Medicare Rx Saver Plus (PDP)"
  },
  {
    "resourceType" : "Organization",
    "id" : "BILLING-ID",
    "identifier" : [{
      "type" : {
        "coding" : [{
          "system" : "http://bluebutton.cms.gov/fhir/CodeSystem/PRVDR-ID-QLFYR-CD",
          "code" : "11",
          "display" : "TIN"
        }]
      },
      "system" : "http://bluebutton.cms.gov/fhir/identifiers/GenericIdNum",
      "value" : "1942945159"
    }],
    "active" : true,
    "name" : "N/A"
  }],
  "identifier" : [{
    "type" : {
      "coding" : [{
        "system" : "http://hl7.org/fhir/us/carin-bb/CodeSystem/C4BBIdentifierType",
        "code" : "uc",
        "display" : "Unique Claim ID"
      }]
    },
    "value" : "PHARM-2024-0012345"
  },
  {
    "system" : "https://bluebutton.cms.gov/identifiers/CLM-CNTL-NUM",
    "value" : "CNTL20240012340"
  }],
  "status" : "active",
  "type" : {
    "coding" : [{
      "system" : "http://terminology.hl7.org/CodeSystem/claim-type",
      "code" : "pharmacy"
    },
    {
      "system" : "https://bluebutton.cms.gov/fhir/CodeSystem/CLM-TYPE-CD",
      "code" : "1",
      "display" : "MEDICARE PART D ORIGINAL CLAIM"
    }]
  },
  "use" : "claim",
  "patient" : {
    "reference" : "Patient/123456789"
  },
  "billablePeriod" : {
    "start" : "2024-01-15",
    "end" : "2024-01-15"
  },
  "created" : "2024-01-15",
  "insurer" : {
    "reference" : "#insurer-org"
  },
  "provider" : {
    "reference" : "#BILLING-ID"
  },
  "outcome" : "complete",
  "careTeam" : [{
    "sequence" : 1,
    "provider" : {
      "identifier" : {
        "type" : {
          "coding" : [{
            "system" : "http://bluebutton.cms.gov/fhir/CodeSystem/PRVDR-ID-QLFYR-CD",
            "code" : "01",
            "display" : "NPI Number"
          },
          {
            "system" : "http://terminology.hl7.org/CodeSystem/v2-0203",
            "code" : "NPI",
            "display" : "National provider identifier"
          }]
        },
        "system" : "http://hl7.org/fhir/sid/us-npi",
        "value" : "1942945159"
      },
      "display" : "Stark, Tony"
    },
    "role" : {
      "coding" : [{
        "system" : "http://terminology.hl7.org/CodeSystem/claimcareteamrole",
        "code" : "prescribing",
        "display" : "Prescribing provider"
      },
      {
        "system" : "http://hl7.org/fhir/us/carin-bb/CodeSystem/C4BBClaimCareTeamRole",
        "code" : "prescribing",
        "display" : "Prescribing provider"
      }]
    }
  }],
  "supportingInfo" : [{
    "sequence" : 1,
    "category" : {
      "coding" : [{
        "system" : "http://hl7.org/fhir/us/carin-bb/CodeSystem/C4BBSupportingInfoType",
        "code" : "refillsauthorized"
      }]
    },
    "valueQuantity" : {
      "value" : 0,
      "unit" : "refills"
    }
  },
  {
    "sequence" : 2,
    "category" : {
      "coding" : [{
        "system" : "http://terminology.hl7.org/CodeSystem/claiminformationcategory",
        "code" : "info",
        "display" : "Information"
      },
      {
        "system" : "https://bluebutton.cms.gov/fhir/CodeSystem/Supporting-Information",
        "code" : "CLM_PHRMCY_SRVC_TYPE_CD",
        "display" : "Pharmacy Service Type Code"
      }]
    },
    "code" : {
      "coding" : [{
        "system" : "https://bluebutton.cms.gov/fhir/CodeSystem/CLM-PHRMCY-SRVC-TYPE-CD",
        "code" : "01",
        "display" : "Community/retail pharmacy"
      }]
    }
  },
  {
    "sequence" : 3,
    "category" : {
      "coding" : [{
        "system" : "http://hl7.org/fhir/us/carin-bb/CodeSystem/C4BBSupportingInfoType",
        "code" : "rxorigincode"
      }]
    },
    "code" : {
      "coding" : [{
        "system" : "http://terminology.hl7.org/CodeSystem/NCPDPPrescriptionOriginCode",
        "code" : "3"
      },
      {
        "system" : "https://bluebutton.cms.gov/fhir/CodeSystem/CLM-LINE-RX-ORGN-CD",
        "code" : "3",
        "display" : "Electronic"
      }]
    }
  },
  {
    "sequence" : 4,
    "category" : {
      "coding" : [{
        "system" : "http://hl7.org/fhir/us/carin-bb/CodeSystem/C4BBSupportingInfoType",
        "code" : "brandgenericindicator"
      }]
    },
    "code" : {
      "coding" : [{
        "system" : "http://terminology.hl7.org/CodeSystem/NCPDPBrandGenericIndicator",
        "code" : "G"
      },
      {
        "system" : "https://bluebutton.cms.gov/fhir/CodeSystem/CLM-BRND-GNRC-CD",
        "code" : "G",
        "display" : "Generic Null/Missing"
      }]
    }
  },
  {
    "sequence" : 5,
    "category" : {
      "coding" : [{
        "system" : "http://terminology.hl7.org/CodeSystem/claiminformationcategory",
        "code" : "info",
        "display" : "Information"
      },
      {
        "system" : "https://bluebutton.cms.gov/fhir/CodeSystem/Supporting-Information",
        "code" : "CLM_PTNT_RSDNC_CD",
        "display" : "Patient Residence Code"
      }]
    },
    "code" : {
      "coding" : [{
        "system" : "https://bluebutton.cms.gov/fhir/CodeSystem/CLM-PTNT-RSDNC-CD",
        "code" : "01",
        "display" : "Home"
      }]
    }
  },
  {
    "sequence" : 6,
    "category" : {
      "coding" : [{
        "system" : "http://terminology.hl7.org/CodeSystem/claiminformationcategory",
        "code" : "info",
        "display" : "Information"
      },
      {
        "system" : "https://bluebutton.cms.gov/fhir/CodeSystem/Supporting-Information",
        "code" : "CLM_LTC_DSPNSNG_MTHD_CD",
        "display" : "Submission Clarification Code"
      }]
    },
    "code" : {
      "coding" : [{
        "system" : "https://bluebutton.cms.gov/fhir/CodeSystem/CLM-LTC-DSPNSNG-MTHD-CD",
        "code" : "05",
        "display" : "Therapy change. Physician determined that a change in therapy was required – either the medication was used faster than expected, or a different dosage form is needed."
      }]
    }
  },
  {
    "sequence" : 7,
    "category" : {
      "coding" : [{
        "system" : "http://hl7.org/fhir/us/carin-bb/CodeSystem/C4BBSupportingInfoType",
        "code" : "compoundcode"
      }]
    },
    "code" : {
      "coding" : [{
        "system" : "http://terminology.hl7.org/CodeSystem/NCPDPCompoundCode",
        "code" : "0"
      },
      {
        "system" : "https://bluebutton.cms.gov/fhir/CodeSystem/CLM-CMPND-CD",
        "code" : "0",
        "display" : "Not specified (missing values are also possible)"
      }]
    }
  },
  {
    "sequence" : 8,
    "category" : {
      "coding" : [{
        "system" : "http://hl7.org/fhir/us/carin-bb/CodeSystem/C4BBSupportingInfoType",
        "code" : "dayssupply"
      }]
    },
    "valueQuantity" : {
      "value" : 30,
      "unit" : "days"
    }
  },
  {
    "sequence" : 9,
    "category" : {
      "coding" : [{
        "system" : "http://hl7.org/fhir/us/carin-bb/CodeSystem/C4BBSupportingInfoType",
        "code" : "refillnum"
      }]
    },
    "valueQuantity" : {
      "value" : 1,
      "unit" : "fill"
    }
  },
  {
    "sequence" : 10,
    "category" : {
      "coding" : [{
        "system" : "http://hl7.org/fhir/us/carin-bb/CodeSystem/C4BBSupportingInfoType",
        "code" : "dawcode"
      }]
    },
    "code" : {
      "coding" : [{
        "system" : "http://terminology.hl7.org/CodeSystem/NCPDPDispensedAsWrittenOrProductSelectionCode",
        "code" : "0"
      }]
    }
  },
  {
    "sequence" : 11,
    "category" : {
      "coding" : [{
        "system" : "http://terminology.hl7.org/CodeSystem/claiminformationcategory",
        "code" : "info",
        "display" : "Information"
      },
      {
        "system" : "https://bluebutton.cms.gov/fhir/CodeSystem/Supporting-Information",
        "code" : "CLM_DRUG_CVRG_STUS_CD",
        "display" : "Drug Coverage Status Code"
      }]
    },
    "code" : {
      "coding" : [{
        "system" : "https://bluebutton.cms.gov/fhir/CodeSystem/CLM-DRUG-CVRG-STUS-CD",
        "code" : "C",
        "display" : "Covered"
      }]
    }
  },
  {
    "sequence" : 12,
    "category" : {
      "coding" : [{
        "system" : "http://terminology.hl7.org/CodeSystem/claiminformationcategory",
        "code" : "info",
        "display" : "Information"
      },
      {
        "system" : "https://bluebutton.cms.gov/fhir/CodeSystem/Supporting-Information",
        "code" : "CLM_CTSTRPHC_CVRG_IND_CD",
        "display" : "Catastrophic Coverage Code"
      }]
    },
    "code" : {
      "coding" : [{
        "system" : "https://bluebutton.cms.gov/fhir/CodeSystem/CLM-CTSTRPHC-CVRG-IND-CD",
        "code" : "C",
        "display" : "Above attachment point"
      }]
    }
  },
  {
    "sequence" : 13,
    "category" : {
      "coding" : [{
        "system" : "http://terminology.hl7.org/CodeSystem/claiminformationcategory",
        "code" : "info",
        "display" : "Information"
      },
      {
        "system" : "https://bluebutton.cms.gov/fhir/CodeSystem/Supporting-Information",
        "code" : "CLM_LINE_RX_NUM",
        "display" : "Claim Line Prescription Service Reference Number"
      }]
    },
    "valueString" : "900001"
  },
  {
    "sequence" : 14,
    "category" : {
      "coding" : [{
        "system" : "http://terminology.hl7.org/CodeSystem/claiminformationcategory",
        "code" : "info",
        "display" : "Information"
      },
      {
        "system" : "https://bluebutton.cms.gov/fhir/CodeSystem/Supporting-Information",
        "code" : "CLM_DSPNSNG_STUS_CD",
        "display" : "Claim Dispensing Status Code"
      }]
    },
    "code" : {
      "coding" : [{
        "system" : "https://bluebutton.cms.gov/fhir/CodeSystem/CLM-DSPNSNG-STUS-CD",
        "code" : "P",
        "display" : "Partially filled"
      }]
    }
  },
  {
    "sequence" : 15,
    "category" : {
      "coding" : [{
        "system" : "http://terminology.hl7.org/CodeSystem/claiminformationcategory",
        "code" : "info",
        "display" : "Information"
      },
      {
        "system" : "https://bluebutton.cms.gov/fhir/CodeSystem/Supporting-Information",
        "code" : "CLM_SBMT_FRMT_CD",
        "display" : "Claim Submission Format Code"
      }]
    },
    "code" : {
      "coding" : [{
        "system" : "https://bluebutton.cms.gov/fhir/CodeSystem/CLM-SBMT-FRMT-CD",
        "code" : "X",
        "display" : "X12 837"
      }]
    }
  },
  {
    "sequence" : 16,
    "category" : {
      "coding" : [{
        "system" : "http://terminology.hl7.org/CodeSystem/claiminformationcategory",
        "code" : "info",
        "display" : "Information"
      },
      {
        "system" : "https://bluebutton.cms.gov/fhir/CodeSystem/Supporting-Information",
        "code" : "CLM_SBMTR_CNTRCT_NUM",
        "display" : "Submitter Contract Number"
      }]
    },
    "valueString" : "H1234"
  },
  {
    "sequence" : 17,
    "category" : {
      "coding" : [{
        "system" : "http://terminology.hl7.org/CodeSystem/claiminformationcategory",
        "code" : "info",
        "display" : "Information"
      },
      {
        "system" : "https://bluebutton.cms.gov/fhir/CodeSystem/Supporting-Information",
        "code" : "CLM_SBMTR_CNTRCT_PBP_NUM",
        "display" : "Submitter Contract PBP Number"
      }]
    },
    "valueString" : "001"
  },
  {
    "sequence" : 18,
    "category" : {
      "coding" : [{
        "system" : "http://terminology.hl7.org/CodeSystem/claiminformationcategory",
        "code" : "info",
        "display" : "Information"
      },
      {
        "system" : "https://bluebutton.cms.gov/fhir/CodeSystem/Supporting-Information",
        "code" : "CLM_IDR_LD_DT",
        "display" : "Claim IDR Load Date"
      }]
    },
    "timingDate" : "2025-01-18"
  },
  {
    "sequence" : 19,
    "category" : {
      "coding" : [{
        "system" : "http://terminology.hl7.org/CodeSystem/claiminformationcategory",
        "code" : "info",
        "display" : "Information"
      },
      {
        "system" : "https://bluebutton.cms.gov/fhir/CodeSystem/Supporting-Information",
        "code" : "CLM_ADJSTMT_TYPE_CD",
        "display" : "Claim Adjustment Type Code"
      }]
    },
    "code" : {
      "coding" : [{
        "system" : "https://bluebutton.cms.gov/fhir/CodeSystem/CLM-ADJSTMT-TYPE-CD",
        "code" : "0",
        "display" : "ORIGINAL"
      }]
    }
  },
  {
    "sequence" : 20,
    "category" : {
      "coding" : [{
        "system" : "http://terminology.hl7.org/CodeSystem/claiminformationcategory",
        "code" : "info",
        "display" : "Information"
      },
      {
        "system" : "https://bluebutton.cms.gov/fhir/CodeSystem/Supporting-Information",
        "code" : "CLM_CMS_PROC_DT",
        "display" : "FI Claim Process Date"
      }]
    },
    "timingDate" : "2024-01-18"
  }],
  "insurance" : [{
    "focal" : true,
    "coverage" : {
      "display" : "Part D"
    }
  }],
  "item" : [{
    "sequence" : 1,
    "productOrService" : {
      "coding" : [{
        "system" : "http://hl7.org/fhir/us/carin-bb/CodeSystem/C4BBCompoundLiteral",
        "code" : "compound",
        "display" : "compound"
      }]
    },
    "servicedDate" : "2024-01-15",
    "adjudication" : [{
      "category" : {
        "coding" : [{
          "system" : "http://terminology.hl7.org/CodeSystem/adjudication",
          "code" : "benefit",
          "display" : "Benefit Amount"
        },
        {
          "system" : "https://bluebutton.cms.gov/fhir/CodeSystem/Adjudication",
          "code" : "CLM_LINE_CVRD_PD_AMT",
          "display" : "Payment Amount"
        }]
      },
      "amount" : {
        "value" : 45.50,
        "currency" : "USD"
      }
    },
    {
      "category" : {
        "coding" : [{
          "system" : "http://hl7.org/fhir/us/carin-bb/CodeSystem/C4BBAdjudication",
          "code" : "paidbypatient",
          "display" : "Paid by patient"
        },
        {
          "system" : "https://bluebutton.cms.gov/fhir/CodeSystem/Adjudication",
          "code" : "CLM_LINE_BENE_PMT_AMT",
          "display" : "Patient Responsibility Payment Amount"
        }]
      },
      "amount" : {
        "value" : 10.00,
        "currency" : "USD"
      }
    },
    {
      "category" : {
        "coding" : [{
          "system" : "https://bluebutton.cms.gov/fhir/CodeSystem/Adjudication",
          "code" : "CLM_LINE_GRS_ABOVE_THRSHLD_AMT",
          "display" : "Gross Drug Cost Above Out Of Pocket Threshold"
        }]
      },
      "amount" : {
        "value" : 25.00,
        "currency" : "USD"
      }
    },
    {
      "category" : {
        "coding" : [{
          "system" : "https://bluebutton.cms.gov/fhir/CodeSystem/Adjudication",
          "code" : "CLM_LINE_GRS_BLW_THRSHLD_AMT",
          "display" : "Gross Drug Cost Below Out Of Pocket Threshold"
        }]
      },
      "amount" : {
        "value" : 75.00,
        "currency" : "USD"
      }
    },
    {
      "category" : {
        "coding" : [{
          "system" : "https://bluebutton.cms.gov/fhir/CodeSystem/Adjudication",
          "code" : "CLM_LINE_LIS_AMT",
          "display" : "Low Income Cost Sharing Subsidy Amount"
        }]
      },
      "amount" : {
        "value" : 10.00,
        "currency" : "USD"
      }
    },
    {
      "category" : {
        "coding" : [{
          "system" : "https://bluebutton.cms.gov/fhir/CodeSystem/Adjudication",
          "code" : "CLM_LINE_PLRO_AMT",
          "display" : "Patient Liability Reduction Other Paid Amount"
        }]
      },
      "amount" : {
        "value" : 1.00,
        "currency" : "USD"
      }
    },
    {
      "category" : {
        "coding" : [{
          "system" : "https://bluebutton.cms.gov/fhir/CodeSystem/Adjudication",
          "code" : "CLM_LINE_RPTD_GAP_DSCNT_AMT",
          "display" : "Claim Line Reported Gap Discount Amount"
        }]
      },
      "amount" : {
        "value" : 10.00,
        "currency" : "USD"
      }
    },
    {
      "category" : {
        "coding" : [{
          "system" : "http://terminology.hl7.org/CodeSystem/adjudication",
          "code" : "submitted",
          "display" : "Submitted Amount"
        },
        {
          "system" : "https://bluebutton.cms.gov/fhir/CodeSystem/Adjudication",
          "code" : "TOT_RX_CST_AMT",
          "display" : "Total RX Cost Amount"
        }]
      },
      "amount" : {
        "value" : 45.50,
        "currency" : "USD"
      }
    },
    {
      "category" : {
        "coding" : [{
          "system" : "https://bluebutton.cms.gov/fhir/CodeSystem/Adjudication",
          "code" : "CLM_LINE_NCVRD_PD_AMT",
          "display" : "Amount Paid for Noncovered Product or Service"
        }]
      },
      "amount" : {
        "value" : 10.08,
        "currency" : "USD"
      }
    },
    {
      "category" : {
        "coding" : [{
          "system" : "https://bluebutton.cms.gov/fhir/CodeSystem/Adjudication",
          "code" : "CLM_LINE_OTHR_TP_PD_AMT",
          "display" : "Other Third Party Paid Amount"
        }]
      },
      "amount" : {
        "value" : 10.05,
        "currency" : "USD"
      }
    }],
    "detail" : [{
      "sequence" : 1,
      "productOrService" : {
        "coding" : [{
          "system" : "http://hl7.org/fhir/sid/ndc",
          "code" : "00071015523",
          "display" : "Lipitor, 90 TABLET, FILM COATED in 1 BOTTLE (0071-0155-23) (package)"
        }]
      },
      "quantity" : {
        "value" : 60,
        "unit" : "UN"
      }
    }]
  }],
  "adjudication" : [{
    "category" : {
      "coding" : [{
        "system" : "http://hl7.org/fhir/us/carin-bb/CodeSystem/C4BBAdjudicationDiscriminator",
        "code" : "benefitpaymentstatus",
        "display" : "Benefit Payment Status"
      }]
    },
    "reason" : {
      "coding" : [{
        "system" : "http://hl7.org/fhir/us/carin-bb/CodeSystem/C4BBPayerAdjudicationStatus",
        "code" : "outofnetwork",
        "display" : "Out Of Network"
      }]
    }
  }],
  "total" : [{
    "category" : {
      "coding" : [{
        "system" : "http://hl7.org/fhir/us/carin-bb/CodeSystem/C4BBAdjudication",
        "code" : "paidbypatient",
        "display" : "Paid by patient"
      },
      {
        "system" : "https://bluebutton.cms.gov/fhir/CodeSystem/Adjudication",
        "code" : "CLM_BENE_PMT_AMT",
        "display" : "Beneficiary Paid Amount"
      }]
    },
    "amount" : {
      "value" : 100.00,
      "currency" : "USD"
    }
  },
  {
    "category" : {
      "coding" : [{
        "system" : "https://bluebutton.cms.gov/fhir/CodeSystem/Adjudication",
        "code" : "CLM_OTHR_TP_PD_AMT",
        "display" : "Other Third Party Payer Paid Amount"
      }]
    },
    "amount" : {
      "value" : 100.00,
      "currency" : "USD"
    }
  },
  {
    "category" : {
      "coding" : [{
        "system" : "http://terminology.hl7.org/CodeSystem/adjudication",
        "code" : "submitted",
        "display" : "Submitted Amount"
      },
      {
        "system" : "https://bluebutton.cms.gov/fhir/CodeSystem/Adjudication",
        "code" : "TOT_RX_CST_AMT",
        "display" : "Total RX Cost Amount"
      }]
    },
    "amount" : {
      "value" : 45.50,
      "currency" : "USD"
    }
  }],
  "payment" : {
    "date" : "2024-01-20"
  }
}