{
  "resourceType" : "ExplanationOfBenefit",
  "meta" : {
    "lastUpdated" : "2024-01-15T10:30:00Z",
    "profile" : ["http://hl7.org/fhir/us/carin-bb/StructureDefinition/C4BB-ExplanationOfBenefit-Pharmacy|2.1.0"],
    "tag" : [{
      "system" : "https://bluebutton.cms.gov/fhir/CodeSystem/System-Type",
      "code" : "NationalClaimsHistory"
    }]
  },
  "contained" : [{
    "resourceType" : "Organization",
    "id" : "insurer-org",
    "meta" : {
      "profile" : ["http://hl7.org/fhir/us/carin-bb/StructureDefinition/C4BB-Organization|2.1.0",
      "http://hl7.org/fhir/us/core/StructureDefinition/us-core-organization|6.1.0"]
    },
    "active" : true,
    "name" : "Super Saver Medicare Rx Saver Plus (PDP)"
  },
  {
    "resourceType" : "Practitioner",
    "id" : "1942945159",
    "meta" : {
      "profile" : ["http://hl7.org/fhir/us/carin-bb/StructureDefinition/C4BB-Practitioner|2.1.0",
      "http://hl7.org/fhir/us/core/StructureDefinition/us-core-practitioner|6.1.0"]
    },
    "identifier" : [{
      "type" : {
        "coding" : [{
          "system" : "http://terminology.hl7.org/CodeSystem/v2-0203",
          "code" : "NPI",
          "display" : "National provider identifier"
        }]
      },
      "system" : "http://hl7.org/fhir/sid/us-npi",
      "value" : "1942945159"
    }],
    "name" : [{
      "family" : "Stark",
      "given" : ["Tony"]
    }]
  }],
  "identifier" : [{
    "type" : {
      "coding" : [{
        "system" : "http://hl7.org/fhir/us/carin-bb/CodeSystem/C4BBIdentifierType",
        "code" : "uc",
        "display" : "Unique Claim ID"
      }]
    },
    "value" : "PHARM-2024-0012345"
  },
  {
    "system" : "https://bluebutton.cms.gov/identifiers/CLM-CNTL-NUM",
    "value" : "CNTL20240012340"
  }],
  "status" : "active",
  "type" : {
    "coding" : [{
      "system" : "http://terminology.hl7.org/CodeSystem/claim-type",
      "code" : "pharmacy"
    },
    {
      "system" : "https://bluebutton.cms.gov/fhir/CodeSystem/CLM-TYPE-CD",
      "code" : "1",
      "display" : "MEDICARE PART D ORIGINAL CLAIM"
    }]
  },
  "use" : "claim",
  "patient" : {
    "reference" : "Patient/123456789"
  },
  "billablePeriod" : {
    "start" : "2024-01-15",
    "end" : "2024-01-15"
  },
  "created" : "2024-01-15",
  "insurer" : {
    "reference" : "#insurer-org"
  },
  "provider" : {
    "reference" : "#1942945159"
  },
  "outcome" : "complete",
  "careTeam" : [{
    "sequence" : 1,
    "provider" : {
      "reference" : "#1942945159"
    },
    "role" : {
      "coding" : [{
        "system" : "http://hl7.org/fhir/us/carin-bb/CodeSystem/C4BBClaimCareTeamRole",
        "code" : "prescribing",
        "display" : "Prescribing provider"
      }]
    }
  }],
  "supportingInfo" : [{
    "sequence" : 1,
    "category" : {
      "coding" : [{
        "system" : "http://hl7.org/fhir/us/carin-bb/CodeSystem/C4BBSupportingInfoType",
        "code" : "refillsauthorized"
      }]
    },
    "valueQuantity" : {
      "value" : 0,
      "unit" : "refills"
    }
  },
  {
    "sequence" : 2,
    "category" : {
      "coding" : [{
        "system" : "http://terminology.hl7.org/CodeSystem/claiminformationcategory",
        "code" : "info",
        "display" : "Information"
      },
      {
        "system" : "https://bluebutton.cms.gov/fhir/CodeSystem/Supporting-Information",
        "code" : "CLM_PHRMCY_SRVC_TYPE_CD",
        "display" : "Pharmacy Service Type Code"
      }]
    },
    "code" : {
      "coding" : [{
        "system" : "https://bluebutton.cms.gov/fhir/CodeSystem/CLM-PHRMCY-SRVC-TYPE-CD",
        "code" : "01",
        "display" : "Community/retail pharmacy"
      }]
    }
  },
  {
    "sequence" : 3,
    "category" : {
      "coding" : [{
        "system" : "http://hl7.org/fhir/us/carin-bb/CodeSystem/C4BBSupportingInfoType",
        "code" : "rxorigincode"
      }]
    },
    "code" : {
      "coding" : [{
        "system" : "http://terminology.hl7.org/CodeSystem/NCPDPPrescriptionOriginCode",
        "code" : "3"
      },
      {
        "system" : "https://bluebutton.cms.gov/fhir/CodeSystem/CLM-LINE-RX-ORGN-CD",
        "code" : "3",
        "display" : "Electronic"
      }]
    }
  },
  {
    "sequence" : 4,
    "category" : {
      "coding" : [{
        "system" : "http://hl7.org/fhir/us/carin-bb/CodeSystem/C4BBSupportingInfoType",
        "code" : "brandgenericindicator"
      }]
    },
    "code" : {
      "coding" : [{
        "system" : "http://terminology.hl7.org/CodeSystem/NCPDPBrandGenericIndicator",
        "code" : "G"
      },
      {
        "system" : "https://bluebutton.cms.gov/fhir/CodeSystem/CLM-BRND-GNRC-CD",
        "code" : "G",
        "display" : "Generic Null/Missing"
      }]
    }
  },
  {
    "sequence" : 5,
    "category" : {
      "coding" : [{
        "system" : "http://terminology.hl7.org/CodeSystem/claiminformationcategory",
        "code" : "info",
        "display" : "Information"
      },
      {
        "system" : "https://bluebutton.cms.gov/fhir/CodeSystem/Supporting-Information",
        "code" : "CLM_PTNT_RSDNC_CD",
        "display" : "Patient Residence Code"
      }]
    },
    "code" : {
      "coding" : [{
        "system" : "https://bluebutton.cms.gov/fhir/CodeSystem/CLM-PTNT-RSDNC-CD",
        "code" : "01",
        "display" : "Home"
      }]
    }
  },
  {
    "sequence" : 6,
    "category" : {
      "coding" : [{
        "system" : "http://terminology.hl7.org/CodeSystem/claiminformationcategory",
        "code" : "info",
        "display" : "Information"
      },
      {
        "system" : "https://bluebutton.cms.gov/fhir/CodeSystem/Supporting-Information",
        "code" : "CLM_LTC_DSPNSNG_MTHD_CD",
        "display" : "Submission Clarification Code"
      }]
    },
    "code" : {
      "coding" : [{
        "system" : "https://bluebutton.cms.gov/fhir/CodeSystem/CLM-LTC-DSPNSNG-MTHD-CD",
        "code" : "05",
        "display" : "Therapy change. Physician determined that a change in therapy was required – either the medication was used faster than expected, or a different dosage form is needed."
      }]
    }
  },
  {
    "sequence" : 7,
    "category" : {
      "coding" : [{
        "system" : "http://hl7.org/fhir/us/carin-bb/CodeSystem/C4BBSupportingInfoType",
        "code" : "compoundcode"
      }]
    },
    "code" : {
      "coding" : [{
        "system" : "http://terminology.hl7.org/CodeSystem/NCPDPCompoundCode",
        "code" : "0"
      },
      {
        "system" : "https://bluebutton.cms.gov/fhir/CodeSystem/CLM-CMPND-CD",
        "code" : "0",
        "display" : "Not specified (missing values are also possible)"
      }]
    }
  },
  {
    "sequence" : 8,
    "category" : {
      "coding" : [{
        "system" : "http://hl7.org/fhir/us/carin-bb/CodeSystem/C4BBSupportingInfoType",
        "code" : "dayssupply"
      }]
    },
    "valueQuantity" : {
      "value" : 30,
      "unit" : "days"
    }
  },
  {
    "sequence" : 9,
    "category" : {
      "coding" : [{
        "system" : "http://hl7.org/fhir/us/carin-bb/CodeSystem/C4BBSupportingInfoType",
        "code" : "refillnum"
      }]
    },
    "valueQuantity" : {
      "value" : 1,
      "unit" : "fill"
    }
  },
  {
    "sequence" : 10,
    "category" : {
      "coding" : [{
        "system" : "http://hl7.org/fhir/us/carin-bb/CodeSystem/C4BBSupportingInfoType",
        "code" : "dawcode"
      }]
    },
    "code" : {
      "coding" : [{
        "system" : "http://terminology.hl7.org/CodeSystem/NCPDPDispensedAsWrittenOrProductSelectionCode",
        "code" : "0"
      }]
    }
  },
  {
    "sequence" : 11,
    "category" : {
      "coding" : [{
        "system" : "http://terminology.hl7.org/CodeSystem/claiminformationcategory",
        "code" : "info",
        "display" : "Information"
      },
      {
        "system" : "https://bluebutton.cms.gov/fhir/CodeSystem/Supporting-Information",
        "code" : "CLM_DRUG_CVRG_STUS_CD",
        "display" : "Drug Coverage Status Code"
      }]
    },
    "code" : {
      "coding" : [{
        "system" : "https://bluebutton.cms.gov/fhir/CodeSystem/CLM-DRUG-CVRG-STUS-CD",
        "code" : "C",
        "display" : "Covered"
      }]
    }
  },
  {
    "sequence" : 12,
    "category" : {
      "coding" : [{
        "system" : "http://terminology.hl7.org/CodeSystem/claiminformationcategory",
        "code" : "info",
        "display" : "Information"
      },
      {
        "system" : "https://bluebutton.cms.gov/fhir/CodeSystem/Supporting-Information",
        "code" : "CLM_CTSTRPHC_CVRG_IND_CD",
        "display" : "Catastrophic Coverage Code"
      }]
    },
    "code" : {
      "coding" : [{
        "system" : "https://bluebutton.cms.gov/fhir/CodeSystem/CLM-CTSTRPHC-CVRG-IND-CD",
        "code" : "C",
        "display" : "Above attachment point"
      }]
    }
  },
  {
    "sequence" : 13,
    "category" : {
      "coding" : [{
        "system" : "http://terminology.hl7.org/CodeSystem/claiminformationcategory",
        "code" : "info",
        "display" : "Information"
      },
      {
        "system" : "https://bluebutton.cms.gov/fhir/CodeSystem/Supporting-Information",
        "code" : "CLM_LINE_RX_NUM",
        "display" : "Claim Line Prescription Service Reference Number"
      }]
    },
    "valueString" : "900001"
  },
  {
    "sequence" : 14,
    "category" : {
      "coding" : [{
        "system" : "http://terminology.hl7.org/CodeSystem/claiminformationcategory",
        "code" : "info",
        "display" : "Information"
      },
      {
        "system" : "https://bluebutton.cms.gov/fhir/CodeSystem/Supporting-Information",
        "code" : "CLM_DSPNSNG_STUS_CD",
        "display" : "Claim Dispensing Status Code"
      }]
    },
    "code" : {
      "coding" : [{
        "system" : "https://bluebutton.cms.gov/fhir/CodeSystem/CLM-DSPNSNG-STUS-CD",
        "code" : "P",
        "display" : "Partially filled"
      }]
    }
  },
  {
    "sequence" : 15,
    "category" : {
      "coding" : [{
        "system" : "http://terminology.hl7.org/CodeSystem/claiminformationcategory",
        "code" : "info",
        "display" : "Information"
      },
      {
        "system" : "https://bluebutton.cms.gov/fhir/CodeSystem/Supporting-Information",
        "code" : "CLM_SBMT_FRMT_CD",
        "display" : "Claim Submission Format Code"
      }]
    },
    "code" : {
      "coding" : [{
        "system" : "https://bluebutton.cms.gov/fhir/CodeSystem/CLM-SBMT-FRMT-CD",
        "code" : "X",
        "display" : "X12 837"
      }]
    }
  },
  {
    "sequence" : 16,
    "category" : {
      "coding" : [{
        "system" : "http://terminology.hl7.org/CodeSystem/claiminformationcategory",
        "code" : "info",
        "display" : "Information"
      },
      {
        "system" : "https://bluebutton.cms.gov/fhir/CodeSystem/Supporting-Information",
        "code" : "CLM_SBMTR_CNTRCT_NUM"
      }]
    },
    "valueString" : "H1234"
  },
  {
    "sequence" : 17,
    "category" : {
      "coding" : [{
        "system" : "http://terminology.hl7.org/CodeSystem/claiminformationcategory",
        "code" : "info",
        "display" : "Information"
      },
      {
        "system" : "https://bluebutton.cms.gov/fhir/CodeSystem/Supporting-Information",
        "code" : "CLM_SBMTR_CNTRCT_PBP_NUM"
      }]
    },
    "valueString" : "001"
  },
  {
    "sequence" : 18
  },
  {
    "sequence" : 19
  },
  {
    "sequence" : 20
  }],
  "insurance" : [{
    "focal" : true,
    "coverage" : {
      "display" : "Part D"
    }
  }],
  "item" : [{
    "sequence" : 1,
    "productOrService" : {
      "coding" : [{
        "system" : "http://hl7.org/fhir/us/carin-bb/CodeSystem/C4BBCompoundLiteral",
        "code" : "compound",
        "display" : "compound"
      }]
    },
    "servicedDate" : "2024-01-15",
    "adjudication" : [{
      "category" : {
        "coding" : [{
          "system" : "http://terminology.hl7.org/CodeSystem/adjudication",
          "code" : "benefit",
          "display" : "Benefit Amount"
        },
        {
          "system" : "https://bluebutton.cms.gov/fhir/CodeSystem/Adjudication",
          "code" : "CLM_LINE_CVRD_PD_AMT",
          "display" : "Payment Amount"
        }]
      },
      "amount" : {
        "value" : 45.50,
        "currency" : "USD"
      }
    },
    {
      "category" : {
        "coding" : [{
          "system" : "http://hl7.org/fhir/us/carin-bb/CodeSystem/C4BBAdjudication",
          "code" : "noncovered",
          "display" : "Noncovered"
        },
        {
          "system" : "https://bluebutton.cms.gov/fhir/CodeSystem/Adjudication",
          "code" : "CLM_LINE_NCVRD_CHRG_AMT",
          "display" : "Non-Covered Charge Amount"
        }]
      },
      "amount" : {
        "value" : 0.00,
        "currency" : "USD"
      }
    },
    {
      "category" : {
        "coding" : [{
          "system" : "http://hl7.org/fhir/us/carin-bb/CodeSystem/C4BBAdjudication",
          "code" : "paidbypatient",
          "display" : "Paid by patient"
        },
        {
          "system" : "https://bluebutton.cms.gov/fhir/CodeSystem/Adjudication",
          "code" : "CLM_LINE_BENE_PMT_AMT",
          "display" : "Patient Responsibility Payment Amount"
        }]
      },
      "amount" : {
        "value" : 10.00,
        "currency" : "USD"
      }
    },
    {
      "category" : {
        "coding" : [{
          "system" : "http://hl7.org/fhir/us/carin-bb/CodeSystem/C4BBAdjudication",
          "code" : "paidtopatient",
          "display" : "Paid to patient"
        },
        {
          "system" : "https://bluebutton.cms.gov/fhir/CodeSystem/Adjudication",
          "code" : "CLM_LINE_BENE_PD_AMT",
          "display" : "Payment Amount to Beneficiary"
        }]
      },
      "amount" : {
        "value" : 5.00,
        "currency" : "USD"
      }
    },
    {
      "category" : {
        "coding" : [{
          "system" : "http://hl7.org/fhir/us/carin-bb/CodeSystem/C4BBAdjudication",
          "code" : "paidtoprovider",
          "display" : "Paid to provider"
        },
        {
          "system" : "https://bluebutton.cms.gov/fhir/CodeSystem/Adjudication",
          "code" : "CLM_LINE_PRVDR_PMT_AMT",
          "display" : "Line Provider Payment Amount"
        }]
      },
      "amount" : {
        "value" : 40.50,
        "currency" : "USD"
      }
    },
    {
      "category" : {
        "coding" : [{
          "system" : "https://bluebutton.cms.gov/fhir/CodeSystem/Adjudication",
          "code" : "CLM_LINE_GRS_ABOVE_THRSHLD_AMT",
          "display" : "Gross Drug Cost Above Out Of Pocket Threshold"
        }]
      },
      "amount" : {
        "value" : 25.00,
        "currency" : "USD"
      }
    },
    {
      "category" : {
        "coding" : [{
          "system" : "https://bluebutton.cms.gov/fhir/CodeSystem/Adjudication",
          "code" : "CLM_LINE_GRS_BLW_THRSHLD_AMT",
          "display" : "Gross Drug Cost Below Out Of Pocket Threshold"
        }]
      },
      "amount" : {
        "value" : 75.00,
        "currency" : "USD"
      }
    },
    {
      "category" : {
        "coding" : [{
          "system" : "https://bluebutton.cms.gov/fhir/CodeSystem/Adjudication",
          "code" : "CLM_LINE_GRS_CVRD_CST_TOT_AMT",
          "display" : "Claim Line Gross Covered Cost Amount"
        }]
      },
      "amount" : {
        "value" : 10.02,
        "currency" : "USD"
      }
    },
    {
      "category" : {
        "coding" : [{
          "system" : "https://bluebutton.cms.gov/fhir/CodeSystem/Adjudication",
          "code" : "CLM_LINE_LIS_AMT",
          "display" : "Low Income Cost Sharing Subsidy Amount"
        }]
      },
      "amount" : {
        "value" : 10.00,
        "currency" : "USD"
      }
    },
    {
      "category" : {
        "coding" : [{
          "system" : "https://bluebutton.cms.gov/fhir/CodeSystem/Adjudication",
          "code" : "CLM_LINE_TROOP_TOT_AMT",
          "display" : "Other True Out Of Pocket Paid Amount"
        }]
      },
      "amount" : {
        "value" : 2.50,
        "currency" : "USD"
      }
    },
    {
      "category" : {
        "coding" : [{
          "system" : "https://bluebutton.cms.gov/fhir/CodeSystem/Adjudication",
          "code" : "CLM_LINE_PLRO_AMT",
          "display" : "Patient Liability Reduction Other Paid Amount"
        }]
      },
      "amount" : {
        "value" : 1.00,
        "currency" : "USD"
      }
    },
    {
      "category" : {
        "coding" : [{
          "system" : "https://bluebutton.cms.gov/fhir/CodeSystem/Adjudication",
          "code" : "CLM_RPTD_MFTR_DSCNT_AMT",
          "display" : "Gap Discount Amount"
        }]
      },
      "amount" : {
        "value" : 5.00,
        "currency" : "USD"
      }
    },
    {
      "category" : {
        "coding" : [{
          "system" : "https://bluebutton.cms.gov/fhir/CodeSystem/Adjudication",
          "code" : "CLM_LINE_INGRDNT_CST_AMT",
          "display" : "Ingredient Cost Amount"
        }]
      },
      "amount" : {
        "value" : 35.00,
        "currency" : "USD"
      }
    },
    {
      "category" : {
        "coding" : [{
          "system" : "https://bluebutton.cms.gov/fhir/CodeSystem/Adjudication",
          "code" : "CLM_LINE_SRVC_CST_AMT",
          "display" : "Dispensing Fee"
        }]
      },
      "amount" : {
        "value" : 8.50,
        "currency" : "USD"
      }
    },
    {
      "category" : {
        "coding" : [{
          "system" : "https://bluebutton.cms.gov/fhir/CodeSystem/Adjudication",
          "code" : "CLM_LINE_SLS_TAX_AMT",
          "display" : "Sales Tax Amount"
        }]
      },
      "amount" : {
        "value" : 2.00,
        "currency" : "USD"
      }
    },
    {
      "category" : {
        "coding" : [{
          "system" : "https://bluebutton.cms.gov/fhir/CodeSystem/Adjudication",
          "code" : "CLM_LINE_VCCN_ADMIN_FEE_AMT",
          "display" : "Vaccination Administration Fee"
        }]
      },
      "amount" : {
        "value" : 0.00,
        "currency" : "USD"
      }
    },
    {
      "category" : {
        "coding" : [{
          "system" : "https://bluebutton.cms.gov/fhir/CodeSystem/Adjudication",
          "code" : "CLM_LINE_NCVRD_PD_AMT",
          "display" : "Amount Paid for Noncovered Product or Service"
        }]
      },
      "amount" : {
        "value" : 10.08,
        "currency" : "USD"
      }
    },
    {
      "category" : {
        "coding" : [{
          "system" : "https://bluebutton.cms.gov/fhir/CodeSystem/Adjudication",
          "code" : "CLM_LINE_OTHR_TP_PD_AMT",
          "display" : "Other Third Party Paid Amount"
        }]
      },
      "amount" : {
        "value" : 10.05,
        "currency" : "USD"
      }
    },
    {
      "category" : {
        "coding" : [{
          "system" : "https://bluebutton.cms.gov/fhir/CodeSystem/Adjudication",
          "code" : "CLM_CMS_CALCD_MFTR_DSCNT_AMT",
          "display" : "CMS Calculated Manufacturer Discount Amount"
        }]
      },
      "amount" : {
        "value" : 10.01,
        "currency" : "USD"
      }
    },
    {
      "category" : {
        "coding" : [{
          "system" : "https://bluebutton.cms.gov/fhir/CodeSystem/Adjudication",
          "code" : "CLM_LINE_REBT_PASSTHRU_POS_AMT",
          "display" : "Rebate Passthrough POS Amount"
        }]
      },
      "amount" : {
        "value" : 10.03,
        "currency" : "USD"
      }
    },
    {
      "category" : {
        "coding" : [{
          "system" : "https://bluebutton.cms.gov/fhir/CodeSystem/Adjudication",
          "code" : "CLM_PHRMCY_PRICE_DSCNT_AT_POS_AMT",
          "display" : "Pharmacy price discount"
        }]
      },
      "amount" : {
        "value" : 10.04,
        "currency" : "USD"
      }
    }],
    "detail" : [{
      "sequence" : 1,
      "productOrService" : {
        "coding" : [{
          "system" : "http://hl7.org/fhir/sid/ndc",
          "code" : "00071015523"
        }]
      },
      "quantity" : {
        "value" : 60,
        "unit" : "UN"
      }
    }]
  }],
  "adjudication" : [{
    "category" : {
      "coding" : [{
        "system" : "http://hl7.org/fhir/us/carin-bb/CodeSystem/C4BBAdjudicationDiscriminator",
        "code" : "benefitpaymentstatus",
        "display" : "Benefit Payment Status"
      }]
    },
    "reason" : {
      "coding" : [{
        "system" : "http://hl7.org/fhir/us/carin-bb/CodeSystem/C4BBPayerAdjudicationStatus",
        "code" : "outofnetwork",
        "display" : "Out Of Network"
      }]
    }
  }],
  "total" : [{
    "category" : {
      "coding" : [{
        "system" : "http://hl7.org/fhir/us/carin-bb/CodeSystem/C4BBAdjudication",
        "code" : "paidbypatient",
        "display" : "Paid by patient"
      },
      {
        "system" : "https://bluebutton.cms.gov/fhir/CodeSystem/Adjudication",
        "code" : "CLM_BENE_PMT_AMT",
        "display" : "Beneficiary Paid Amount"
      }]
    },
    "amount" : {
      "value" : 100.00,
      "currency" : "USD"
    }
  },
  {
    "category" : {
      "coding" : [{
        "system" : "https://bluebutton.cms.gov/fhir/CodeSystem/Adjudication",
        "code" : "CLM_OTHR_TP_PD_AMT",
        "display" : "Other Third Party Payer Paid Amount"
      }]
    },
    "amount" : {
      "value" : 100.00,
      "currency" : "USD"
    }
  }],
  "payment" : {
    "date" : "2024-01-20"
  }
}